"Time (s)","Acceleration x (m/s^2)","Acceleration y (m/s^2)","Acceleration z (m/s^2)"
2.001333800E-2,-6.269195080E-1,-8.968298912E0,8.551948547E0
2.242531700E-2,-6.269195080E-1,-9.226723671E0,8.480163574E0
2.483729600E-2,-6.412764788E-1,-9.451649666E0,8.417949677E0
2.724927500E-2,-6.939185858E-1,-9.585647583E0,8.360522270E0
2.966120200E-2,-7.465606928E-1,-9.657432556E0,8.298309326E0
3.207318200E-2,-8.135597110E-1,-9.710074425E0,8.260024071E0
3.448516100E-2,-8.709874153E-1,-9.753145218E0,8.245666504E0
3.689708800E-2,-8.853443861E-1,-9.810572624E0,8.312665939E0
3.930906700E-2,-8.614161611E-1,-9.930213928E0,8.422736168E0
4.172104600E-2,-8.422735929E-1,-1.015992451E1,8.523234367E0
4.413297300E-2,-7.657032609E-1,-1.030349445E1,8.618947029E0
4.654495200E-2,-7.896314859E-1,-1.037049294E1,8.690732002E0
4.895693200E-2,-8.566305041E-1,-1.048056316E1,8.681160927E0
5.136891100E-2,-9.379864931E-1,-1.059063339E1,8.700303078E0
5.378083800E-2,-9.332008362E-1,-1.063848972E1,8.829515457E0
5.619281700E-2,-9.092726111E-1,-1.066241741E1,9.059226990E0
5.860479600E-2,-9.858429432E-1,-1.069591713E1,9.217152596E0
6.101677500E-2,-1.071984529E0,-1.066241741E1,9.231510162E0
6.342870200E-2,-1.110269666E0,-1.065763187E1,9.131011009E0
6.584068200E-2,-1.095912814E0,-1.070548820E1,9.107083321E0
6.825266100E-2,-1.076770186E0,-1.078684425E1,9.226723671E0
7.066458800E-2,-1.028913736E0,-1.085862923E1,9.437292099E0
7.307656700E-2,-1.067198873E0,-1.091605663E1,9.643074989E0
7.548854600E-2,-1.086341500E0,-1.101177025E1,9.638289452E0
7.790047300E-2,-1.081555843E0,-1.107876873E1,9.571290970E0
8.031245200E-2,-1.115055323E0,-1.104048347E1,9.542576790E0
8.272437900E-2,-1.124626637E0,-1.096869946E1,9.604789734E0
8.513641100E-2,-1.081555843E0,-1.086820030E1,9.724431038E0
8.754833800E-2,-1.052842021E0,-1.078684425E1,9.872786522E0
8.996031700E-2,-1.086341500E0,-1.068156052E1,9.982855797E0
9.237229600E-2,-1.115055323E0,-1.057627583E1,1.006899738E1
9.478422300E-2,-1.105484009E0,-1.046620655E1,1.011206818E1
9.719620200E-2,-1.048056364E0,-1.028435135E1,1.024128056E1
9.960818200E-2,-8.566305041E-1,-1.004028416E1,1.052841949E1
1.020201610E-1,-6.317051649E-1,-9.762716293E0,1.086820030E1
1.044320880E-1,-5.647061467E-1,-9.528220177E0,1.110269737E1
1.068440670E-1,-6.173482537E-1,-9.355937004E0,1.122233772E1
1.092560460E-1,-7.465606928E-1,-9.255437851E0,1.116969585E1
1.116680250E-1,-8.518448472E-1,-9.135796547E0,1.113619614E1
1.140799000E-1,-8.566305041E-1,-8.949156761E0,1.122712421E1
1.164919320E-1,-9.188438654E-1,-8.819944382E0,1.141376400E1
1.189039110E-1,-9.714859724E-1,-8.848658562E0,1.151904774E1
1.213158380E-1,-9.236295223E-1,-8.977870941E0,1.141376400E1
1.237278170E-1,-8.566305041E-1,-9.049654961E0,1.117926693E1
1.261397960E-1,-7.848458290E-1,-9.087940216E0,1.102134132E1
1.285517750E-1,-7.417750359E-1,-9.092725754E0,1.105484104E1
1.309637020E-1,-7.322037220E-1,-9.030512810E0,1.112662506E1
1.333756820E-1,-7.944171429E-1,-8.968298912E0,1.116491032E1
1.357876610E-1,-8.662018180E-1,-8.958727837E0,1.108355427E1
1.381996400E-1,-8.183453679E-1,-8.977870941E0,1.099262714E1
1.406115150E-1,-7.322037220E-1,-8.963513374E0,1.087777138E1
1.430235460E-1,-6.652047038E-1,-8.930013657E0,1.079162979E1
1.454355250E-1,-6.508477330E-1,-8.906085968E0,1.072941685E1
1.478474520E-1,-6.125625968E-1,-8.930013657E0,1.067677498E1
1.502593790E-1,-5.359922647E-1,-8.963513374E0,1.059541893E1
1.526714110E-1,-4.833501875E-1,-8.987442017E0,1.051406288E1
1.550833380E-1,-4.737788737E-1,-9.044869423E0,1.045184898E1
1.574953170E-1,-4.833501875E-1,-9.140582085E0,1.041835022E1
1.599072960E-1,-5.072783828E-1,-9.279366493E0,1.038963604E1
1.623192750E-1,-5.886343718E-1,-9.389435768E0,1.032742214E1
1.647312020E-1,-7.322037220E-1,-9.518648148E0,1.019342422E1
1.671431820E-1,-8.805587292E-1,-9.633503914E0,1.001635551E1
1.695551610E-1,-1.038485050E0,-9.748359680E0,9.863214493E0
1.719670880E-1,-1.134197950E0,-9.801001549E0,9.805787086E0
1.743790670E-1,-1.115055323E0,-9.853643417E0,9.863214493E0
1.767910460E-1,-1.138983607E0,-1.008335495E1,9.887143135E0
1.792030250E-1,-1.277767301E0,-1.043270683E1,9.801001549E0
1.816149520E-1,-1.244267821E0,-1.057149029E1,9.734002113E0
1.840269320E-1,-1.167697430E0,-1.053320503E1,9.719645500E0
1.864389110E-1,-1.363908887E0,-1.061934662E1,9.676574707E0
1.888508380E-1,-1.411765337E0,-1.071506023E1,9.705288887E0
1.912628170E-1,-1.339980721E0,-1.069113159E1,9.801001549E0
1.936747960E-1,-1.368694544E0,-1.070070267E1,9.805787086E0
1.960867750E-1,-1.426122308E0,-1.075813103E1,9.801001549E0
1.984987020E-1,-1.454836130E0,-1.089212894E1,9.824930191E0
2.009106820E-1,-1.564906001E0,-1.085862923E1,9.939785004E0
2.033226610E-1,-1.770688772E0,-1.083470058E1,9.958928108E0
2.057345880E-1,-1.899901152E0,-1.081555843E1,9.853643417E0
2.081465670E-1,-1.995614052E0,-1.079162979E1,9.676574707E0
2.105585460E-1,-2.019542217E0,-1.070548820E1,9.600004196E0
2.129704730E-1,-2.014756680E0,-1.064806080E1,9.580862045E0
2.153824520E-1,-2.024327993E0,-1.052841949E1,9.590433121E0
2.177944320E-1,-2.062613010E0,-1.047577763E1,9.533005714E0
2.202064110E-1,-2.057827473E0,-1.042792130E1,9.456435204E0
2.226183380E-1,-2.076970100E0,-1.038485050E1,9.403793335E0
2.250303170E-1,-2.096112728E0,-1.032742214E1,9.389435768E0
2.274422960E-1,-2.115255117E0,-1.026042366E1,9.360722542E0
2.298542230E-1,-2.134397745E0,-1.017906761E1,9.327222824E0
2.322662020E-1,-2.167897224E0,-1.009771156E1,9.255437851E0
2.346781820E-1,-2.177468538E0,-1.003071213E1,9.178867340E0
2.370901610E-1,-2.210968018E0,-9.973284721E0,9.135796547E0
2.395020360E-1,-2.239681959E0,-9.901499748E0,9.150154114E0
2.419140670E-1,-2.258824587E0,-9.820143700E0,9.178867340E0
2.443260460E-1,-2.287538528E0,-9.753145218E0,9.193224907E0
2.467380250E-1,-2.340180635E0,-9.638289452E0,9.193224907E0
2.491499520E-1,-2.383251429E0,-9.533005714E0,9.202795982E0
2.515619320E-1,-2.402393818E0,-9.375079155E0,9.231510162E0
2.539739110E-1,-2.397608280E0,-9.241081238E0,9.284152031E0
2.563858380E-1,-2.364108801E0,-9.116654396E0,9.298508644E0
2.587978170E-1,-2.330609322E0,-8.920442581E0,9.288937569E0
2.612097960E-1,-2.378465652E0,-8.666803360E0,9.346364975E0
2.636217750E-1,-2.459821701E0,-8.595019341E0,9.360722542E0
2.660337020E-1,-2.383251429E0,-8.642875671E0,9.351150513E0
2.684456820E-1,-2.062613010E0,-8.681160927E0,9.437292099E0
2.708576610E-1,-1.646261930E0,-8.604590416E0,9.604789734E0
2.732695880E-1,-1.406979680E0,-8.413164139E0,9.743574142E0
2.756815670E-1,-1.292124271E0,-8.317451477E0,9.791430473E0
2.780935460E-1,-1.162911773E0,-8.307880402E0,9.767501831E0
2.805054730E-1,-1.105484009E0,-8.322237015E0,9.705288887E0
2.829174520E-1,-1.048056364E0,-8.202595711E0,9.743574142E0
2.853294320E-1,-1.000199914E0,-8.140382767E0,9.805787086E0
2.877414110E-1,-8.279166222E-1,-8.140382767E0,9.810572624E0
2.901533380E-1,-6.364908218E-1,-8.207381248E0,9.729216576E0
2.925653170E-1,-5.694918036E-1,-8.250452042E0,9.643074989E0
2.949772960E-1,-5.216353536E-1,-8.279166222E0,9.576076508E0
2.973892230E-1,-5.264210105E-1,-8.322237015E0,9.475577354E0
2.998012020E-1,-5.742774606E-1,-8.154739380E0,9.466006279E0
3.022131820E-1,-5.647061467E-1,-8.020741463E0,9.499505997E0
3.046251610E-1,-4.929214716E-1,-8.149953842E0,9.389435768E0
3.070370880E-1,-4.785645306E-1,-8.312665939E0,9.164510727E0
3.094490670E-1,-4.259224236E-1,-8.489734650E0,8.944371223E0
3.118610460E-1,-3.924229145E-1,-8.566305161E0,8.786444664E0
3.142730250E-1,-3.684946895E-1,-8.618947029E0,8.776873589E0
3.166849520E-1,-2.823530734E-1,-8.729017258E0,8.786444664E0
3.190969320E-1,-2.632105052E-1,-8.891729355E0,8.781659126E0
3.215089110E-1,-2.727817893E-1,-9.145368576E0,8.729017258E0
3.239208380E-1,-2.679961324E-1,-9.308079720E0,8.733802795E0
3.263328170E-1,-2.967100143E-1,-9.475577354E0,8.724231720E0
3.287447960E-1,-2.153540403E-1,-9.662218094E0,8.829515457E0
3.311567230E-1,-1.052841991E-1,-9.829715729E0,8.944371223E0
3.335687020E-1,-7.657032460E-2,-9.934999466E0,9.011369705E0
3.359806820E-1,-1.531406492E-1,-1.001635551E1,8.973084450E0
3.383926610E-1,-2.057827413E-1,-1.004506969E1,8.953942299E0
3.408045880E-1,-1.962114573E-1,-1.014078236E1,9.016156197E0
3.432165670E-1,-2.679961324E-1,-1.023170948E1,9.159725189E0
3.456285460E-1,-4.067798555E-1,-1.023649502E1,9.293723106E0
3.480404730E-1,-4.546363056E-1,-1.029392338E1,9.303294182E0
3.504524520E-1,-4.737788737E-1,-1.041356373E1,9.322437286E0
3.528644320E-1,-5.886343718E-1,-1.057149029E1,9.418149948E0
3.552764110E-1,-7.657032609E-1,-1.067677498E1,9.556933403E0
3.576883380E-1,-9.044869542E-1,-1.074855900E1,9.633503914E0
3.601003170E-1,-1.048056364E0,-1.094477081E1,9.619147301E0
3.625122960E-1,-1.062413216E0,-1.098784161E1,9.690931320E0
3.649242230E-1,-1.009771109E0,-1.091605663E1,9.858428955E0
3.673362020E-1,-1.000199914E0,-1.077248764E1,9.949356079E0
3.697481820E-1,-1.000199914E0,-1.070070267E1,9.997213364E0
3.721601610E-1,-9.810572863E-1,-1.074377346E1,1.007378292E1
3.745720880E-1,-1.024128079E0,-1.077727318E1,1.009292603E1
3.769840670E-1,-1.105484009E0,-1.084427261E1,1.008335495E1
3.793960460E-1,-1.158126116E0,-1.091127110E1,1.007378292E1
3.818080250E-1,-1.196411371E0,-1.095434189E1,1.011685371E1
3.842199520E-1,-1.272981644E0,-1.091127110E1,1.017428207E1
3.866319320E-1,-1.316052437E0,-1.083470058E1,1.019820976E1
3.890439110E-1,-1.363908887E0,-1.078205872E1,1.022692394E1
3.914558380E-1,-1.459621787E0,-1.076770210E1,1.024128056E1
3.938678170E-1,-1.478764415E0,-1.075334454E1,1.022692394E1
3.962797960E-1,-1.469193101E0,-1.070070267E1,1.024128056E1
3.986917230E-1,-1.488335729E0,-1.060977554E1,1.027956581E1
4.011037020E-1,-1.536192179E0,-1.048534870E1,1.036570740E1
4.035156820E-1,-1.550549030E0,-1.027478027E1,1.048056316E1
4.059276610E-1,-1.526620865E0,-1.001635551E1,1.062891865E1
4.083395880E-1,-1.497906923E0,-9.820143700E0,1.079641533E1
4.107515670E-1,-1.421336651E0,-9.619147301E0,1.093998528E1
4.131635460E-1,-1.287338614E0,-9.327222824E0,1.107876873E1
4.155754730E-1,-1.244267821E0,-9.083154678E0,1.122233772E1
4.179874520E-1,-1.301695466E0,-8.920442581E0,1.136112213E1
4.203994320E-1,-1.445264935E0,-8.839086533E0,1.142333508E1
4.228114110E-1,-1.564906001E0,-8.805587769E0,1.136590767E1
4.252233380E-1,-1.550549030E0,-8.819944382E0,1.127019501E1
4.276353170E-1,-1.512263894E0,-8.843872070E0,1.118405342E1
4.300472960E-1,-1.588834286E0,-8.829515457E0,1.116012478E1
4.324592230E-1,-1.631905079E0,-8.834300995E0,1.115055370E1
4.348712020E-1,-1.564906001E0,-8.848658562E0,1.111705399E1
4.372831820E-1,-1.488335729E0,-8.867800713E0,1.102134132E1
4.396951610E-1,-1.430907965E0,-8.843872070E0,1.096869946E1
4.421070880E-1,-1.454836130E0,-8.733802795E0,1.097348499E1
4.445190670E-1,-1.488335729E0,-8.662017822E0,1.096869946E1
4.469310460E-1,-1.526620865E0,-8.604590416E0,1.096869946E1
4.493429730E-1,-1.478764415E0,-8.618947029E0,1.087777138E1
4.517549520E-1,-1.440479279E0,-8.642875671E0,1.060977554E1
4.541669320E-1,-1.445264935E0,-8.638090134E0,1.033699417E1
4.565788590E-1,-1.387837172E0,-8.709874153E0,1.015035343E1
4.589908380E-1,-1.320838094E0,-8.752944946E0,1.016471100E1
4.614028170E-1,-1.153340459E0,-8.819944382E0,1.019342422E1
4.638147960E-1,-9.906286001E-1,-8.930013657E0,1.019820976E1
4.662267230E-1,-8.614161611E-1,-9.145368576E0,1.013599682E1
4.686387020E-1,-8.374879360E-1,-9.260223389E0,1.004028416E1
4.710506820E-1,-9.332008362E-1,-9.332008362E0,9.934999466E0
4.734626090E-1,-1.196411371E0,-9.394221306E0,9.757930756E0
4.758745880E-1,-1.564906001E0,-9.413364410E0,9.576076508E0
4.782865670E-1,-1.775474429E0,-9.408578873E0,9.485149384E0
4.806985460E-1,-1.564906001E0,-9.461220741E0,9.451649666E0
4.831104210E-1,-1.306481123E0,-9.580862045E0,9.418149948E0
4.855224520E-1,-1.330409408E0,-9.705288887E0,9.336793900E0
4.879344320E-1,-1.378265858E0,-9.810572624E0,9.336793900E0
4.903464110E-1,-1.344766378E0,-9.915857315E0,9.394221306E0
4.927583380E-1,-1.483550072E0,-1.003549862E1,9.355937004E0
4.951703170E-1,-1.741974831E0,-1.009771156E1,9.217152596E0
4.975822960E-1,-1.880758643E0,-1.007856941E1,9.059226990E0
4.999942230E-1,-1.942971945E0,-1.006421185E1,8.949156761E0
5.024062020E-1,-1.933400750E0,-1.006899738E1,8.910871506E0
5.048181820E-1,-1.832902193E0,-1.014078236E1,8.939585686E0
5.072301610E-1,-1.741974831E0,-1.019820976E1,9.025727272E0
5.096420880E-1,-1.655833244E0,-1.024606609E1,9.145368576E0
5.120540670E-1,-1.603191137E0,-1.029870892E1,9.207581520E0
5.144660460E-1,-1.646261930E0,-1.035135078E1,9.092725754E0
5.168779730E-1,-1.718046665E0,-1.032742214E1,8.958727837E0
5.192899520E-1,-1.852044702E0,-1.031306553E1,8.819944382E0
5.217019320E-1,-1.957328916E0,-1.038963604E1,8.724231720E0
5.241138590E-1,-1.990828395E0,-1.027478027E1,8.776873589E0
5.265258380E-1,-2.005185366E0,-1.013599682E1,8.858229637E0
5.289378170E-1,-1.971685886E0,-1.000678444E1,8.863015175E0
5.313497960E-1,-1.962114573E0,-9.973284721E0,8.810373306E0
5.337617230E-1,-1.952543259E0,-9.954142570E0,8.776873589E0
5.361737020E-1,-1.995614052E0,-9.930213928E0,8.776873589E0
5.385856820E-1,-2.062613010E0,-9.853643417E0,8.781659126E0
5.409976090E-1,-2.124826431E0,-9.805787086E0,8.767302513E0
5.434095880E-1,-2.153540373E0,-9.734002113E0,8.781659126E0
5.458215670E-1,-2.129612207E0,-9.667003632E0,8.810373306E0
5.482335460E-1,-2.086541414E0,-9.533005714E0,8.886942863E0
5.506454730E-1,-2.033899307E0,-9.408578873E0,8.982656479E0
5.530574520E-1,-1.928615093E0,-9.260223389E0,9.092725754E0
5.554694320E-1,-1.880758643E0,-9.121439934E0,9.178867340E0
5.578813590E-1,-1.823330879E0,-8.997013092E0,9.231510162E0
5.602933380E-1,-1.770688772E0,-8.896514893E0,9.269794464E0
5.627053170E-1,-1.718046665E0,-8.858229637E0,9.312865257E0
5.651172960E-1,-1.646261930E0,-8.843872070E0,9.379864693E0
5.675292230E-1,-1.540977836E0,-8.786444664E0,9.528220177E0
5.699412020E-1,-1.378265858E0,-8.556734085E0,9.729216576E0
5.723531820E-1,-1.287338614E0,-8.360522270E0,9.891928673E0
5.747651090E-1,-1.263410330E0,-8.264809608E0,9.939785004E0
5.771770880E-1,-1.268195987E0,-8.145168304E0,9.963713646E0
5.795890670E-1,-1.138983607E0,-8.116454124E0,1.001156998E1
5.820010460E-1,-9.714859724E-1,-8.178668022E0,1.007378292E1
5.844129730E-1,-9.523434043E-1,-8.149953842E0,1.010728264E1
5.868249520E-1,-8.997012973E-1,-8.001599312E0,1.027956581E1
5.892369320E-1,-8.087740541E-1,-7.901100159E0,1.034177971E1
5.916488590E-1,-6.939185858E-1,-7.901100159E0,1.027956581E1
5.940608380E-1,-5.599204898E-1,-8.015955925E0,1.009771156E1
5.964728170E-1,-4.354937077E-1,-8.059026718E0,9.930213928E0
5.988847960E-1,-3.254238665E-1,-8.059026718E0,9.896714211E0
6.012967230E-1,-2.536391914E-1,-8.039883614E0,9.982855797E0
6.037087020E-1,-1.579262912E-1,-8.078168869E0,1.008335495E1
6.061206820E-1,-6.699903309E-2,-8.145168304E0,1.003549862E1
6.085326090E-1,-2.871387079E-2,-8.250452042E0,9.882357597E0
6.109445880E-1,-1.914258115E-2,-8.346165657E0,9.719645500E0
6.133565670E-1,9.571290575E-3,-8.403593063E0,9.686145782E0
6.157685460E-1,1.435693540E-2,-8.470592499E0,9.690931320E0
6.181804730E-1,2.871387079E-2,-8.585447311E0,9.657432556E0
6.205924520E-1,3.828516230E-2,-8.662017822E0,9.552147865E0
6.230044320E-1,5.264209956E-2,-8.729017258E0,9.446864128E0
6.254163590E-1,8.135596663E-2,-8.757730484E0,9.399007797E0
6.278283380E-1,1.004985496E-1,-8.834300995E0,9.451649666E0
6.302403170E-1,1.052841991E-1,-8.910871506E0,9.518648148E0
6.326522440E-1,8.614161611E-2,-8.963513374E0,9.537791252E0
6.350642230E-1,4.785645287E-3,-9.145368576E0,9.451649666E0
6.374762020E-1,-5.264209956E-2,-9.327222824E0,9.322437286E0
6.398881820E-1,-1.244267747E-1,-9.475577354E0,9.255437851E0
6.423001090E-1,-2.057827413E-1,-9.566504478E0,9.279366493E0
6.447120880E-1,-2.919243574E-1,-9.600004196E0,9.399007797E0
6.471240670E-1,-3.828516304E-1,-9.609575272E0,9.590433121E0
6.495359940E-1,-5.024927258E-1,-9.786644936E0,9.614361763E0
6.519479730E-1,-5.742774606E-1,-1.004028416E1,9.533005714E0
6.543599520E-1,-5.886343718E-1,-1.015035343E1,9.470791817E0
6.567719320E-1,-5.072783828E-1,-1.017428207E1,9.513862610E0
6.591838590E-1,-4.642075896E-1,-1.024128056E1,9.719645500E0
6.615958380E-1,-5.407779217E-1,-1.042792130E1,9.963713646E0
6.640078170E-1,-6.652047038E-1,-1.056670475E1,1.012642574E1
6.664197440E-1,-8.039883971E-1,-1.060499001E1,1.009292603E1
6.688317230E-1,-1.052842021E0,-1.057627583E1,1.000678444E1
6.712437020E-1,-1.196411371E0,-1.054756260E1,1.002592659E1
6.736556290E-1,-1.225125194E0,-1.061934662E1,1.019342422E1
6.760676090E-1,-1.282552958E0,-1.066241741E1,1.031785107E1
6.784795880E-1,-1.244267821E0,-1.063848972E1,1.034656525E1
6.808915670E-1,-1.234696507E0,-1.057627583E1,1.023649502E1
6.833034940E-1,-1.325623751E0,-1.056191921E1,1.005464077E1
6.857154730E-1,-1.459621787E0,-1.058584690E1,9.978070259E0
6.881274520E-1,-1.497906923E0,-1.055713367E1,1.007378292E1
6.905393790E-1,-1.493121386E0,-1.060020447E1,1.029392338E1
6.929513590E-1,-1.416550994E0,-1.063848972E1,1.045663452E1
6.953633380E-1,-1.450050473E0,-1.061934662E1,1.041835022E1
6.977753170E-1,-1.517049551E0,-1.048534870E1,1.019820976E1
7.001872440E-1,-1.655833244E0,-1.038485050E1,1.003071213E1
7.025992230E-1,-1.741974831E0,-1.027478027E1,1.004506969E1
7.050112020E-1,-1.765903115E0,-1.018863869E1,1.018385315E1
7.074231290E-1,-1.780260086E0,-1.002592659E1,1.035613632E1
7.098351090E-1,-1.818545222E0,-9.853643417E0,1.042792130E1
7.122470880E-1,-1.856830359E0,-9.705288887E0,1.042792130E1
7.146590670E-1,-1.914258122E0,-9.451649666E0,1.049970531E1
7.170709940E-1,-1.923829436E0,-9.236295700E0,1.062891865E1
7.194829730E-1,-1.947757602E0,-9.107083321E0,1.076291656E1
7.218949520E-1,-1.962114573E0,-8.992227554E0,1.082034397E1
7.243068790E-1,-2.019542217E0,-8.934800148E0,1.077727318E1
7.267188590E-1,-2.067398787E0,-8.824729919E0,1.074855900E1
7.291308380E-1,-2.053041935E0,-8.685946465E0,1.082034397E1
7.315428170E-1,-1.957328916E0,-8.470592499E0,1.093519974E1
7.339547440E-1,-1.866401672E0,-8.260024071E0,1.106441212E1
7.363667230E-1,-1.804188251E0,-8.216953278E0,1.107876873E1
7.387787020E-1,-1.804188251E0,-8.178668022E0,1.101655579E1
7.411906290E-1,-1.708475351E0,-8.169096947E0,1.095434189E1
7.436026090E-1,-1.507478237E0,-8.154739380E0,1.099262714E1
7.460145880E-1,-1.416550994E0,-8.111668587E0,1.105484104E1
7.484265670E-1,-1.354337573E0,-8.135597229E0,1.097348499E1
7.508384940E-1,-1.349551916E0,-8.159524918E0,1.081555843E1
7.532504730E-1,-1.368694544E0,-8.126026154E0,1.068634605E1
7.556624520E-1,-1.440479279E0,-8.111668587E0,1.052363396E1
7.580743790E-1,-1.445264935E0,-8.116454124E0,1.036092186E1
7.604863590E-1,-1.359123230E0,-8.102097511E0,1.020299530E1
7.628983380E-1,-1.311266780E0,-8.049455643E0,1.001635551E1
7.653103170E-1,-1.263410330E0,-8.020741463E0,9.863214493E0
7.677222440E-1,-1.148554921E0,-8.006384850E0,9.834501266E0
7.701342230E-1,-1.129412293E0,-8.030312538E0,9.772287369E0
7.725462020E-1,-1.172483087E0,-8.092526436E0,9.671789169E0
7.749581290E-1,-1.148554921E0,-8.307880402E0,9.442078590E0
7.773701090E-1,-1.316052437E0,-8.441878319E0,9.202795982E0
7.797820880E-1,-1.368694544E0,-8.528019905E0,9.064012527E0
7.821940670E-1,-1.086341500E0,-8.700303078E0,8.992227554E0
7.846059940E-1,-7.322037220E-1,-8.944371223E0,8.949156761E0
7.870179730E-1,-5.647061467E-1,-9.159725189E0,8.920442581E0
7.894299520E-1,-6.556333899E-1,-9.274580956E0,8.910871506E0
7.918418790E-1,-8.039883971E-1,-9.327222824E0,8.867800713E0
7.942538590E-1,-9.810572863E-1,-9.351150513E0,8.810373306E0
7.966658380E-1,-1.186840057E0,-9.399007797E0,8.714659691E0
7.990777130E-1,-1.330409408E0,-9.585647583E0,8.642875671E0
8.014897440E-1,-1.335195065E0,-9.753145218E0,8.595019341E0
8.039017230E-1,-1.320838094E0,-9.805787086E0,8.604590416E0
8.063137020E-1,-1.339980721E0,-9.815358162E0,8.623732567E0
8.087256290E-1,-1.354337573E0,-9.839286804E0,8.585447311E0
8.111376090E-1,-1.373480201E0,-9.815358162E0,8.580661774E0
8.135495880E-1,-1.426122308E0,-9.743574142E0,8.575876236E0
8.159615150E-1,-1.545763373E0,-9.705288887E0,8.571090698E0
8.183734940E-1,-1.641476393E0,-9.748359680E0,8.561519623E0
8.207854730E-1,-1.622333765E0,-9.824930191E0,8.528019905E0
8.231974520E-1,-1.631905079E0,-9.944570541E0,8.547162056E0
8.256093790E-1,-1.584048629E0,-1.014556789E1,8.585447311E0
8.280213590E-1,-1.512263894E0,-1.037527943E1,8.571090698E0
8.304333380E-1,-1.435693622E0,-1.043749237E1,8.585447311E0
8.328452650E-1,-1.493121386E0,-1.044706345E1,8.599804878E0
8.352572440E-1,-1.531406522E0,-1.042792130E1,8.618947029E0
8.376692230E-1,-1.569691658E0,-1.035613632E1,8.628518105E0
8.400811500E-1,-1.555334687E0,-1.018863869E1,8.676374435E0
8.424931290E-1,-1.521835208E0,-9.954142570E0,8.752944946E0
8.449051090E-1,-1.450050473E0,-9.815358162E0,8.867800713E0
8.473170880E-1,-1.316052437E0,-9.834501266E0,8.977870941E0
8.497290150E-1,-1.268195987E0,-9.901499748E0,9.064012527E0
8.521409940E-1,-1.354337573E0,-9.853643417E0,9.140582085E0
8.545529730E-1,-1.493121386E0,-9.681360245E0,9.183652878E0
8.569649000E-1,-1.569691658E0,-9.470791817E0,9.202795982E0
8.593768790E-1,-1.512263894E0,-9.336793900E0,9.245866776E0
8.617888590E-1,-1.440479279E0,-9.178867340E0,9.375079155E0
8.642008380E-1,-1.301695466E0,-8.992227554E0,9.614361763E0
8.666127650E-1,-1.162911773E0,-8.853444099E0,9.844072342E0
8.690247440E-1,-1.048056364E0,-8.834300995E0,9.982855797E0
8.714367230E-1,-9.571290612E-1,-8.930013657E0,1.004985523E1
8.738486500E-1,-9.092726111E-1,-8.915657043E0,1.012642574E1
8.762606290E-1,-8.135597110E-1,-8.681160927E0,1.031785107E1
8.786726090E-1,-7.944171429E-1,-8.403593063E0,1.056670475E1
8.810845880E-1,-7.609176040E-1,-8.106883049E0,1.084427261E1
8.834965150E-1,-8.087740541E-1,-8.015955925E0,1.096869946E1
8.859084940E-1,-8.614161611E-1,-8.025527000E0,1.087298584E1
8.883204730E-1,-9.332008362E-1,-8.111668587E0,1.060499001E1
8.907324000E-1,-9.523434043E-1,-8.145168304E0,1.038963604E1
8.931443790E-1,-7.992027402E-1,-8.102097511E0,1.040399265E1
8.955563590E-1,-5.216353536E-1,-8.044670105E0,1.057627583E1
8.979682860E-1,-3.732803464E-1,-8.044670105E0,1.073420238E1
9.003802650E-1,-3.780659735E-1,-8.039883614E0,1.082991505E1
9.027922440E-1,-3.684946895E-1,-8.068597794E0,1.072941685E1
9.052042230E-1,-3.541377485E-1,-8.106883049E0,1.049491978E1
9.076161500E-1,-2.536391914E-1,-8.087740898E0,1.031785107E1
9.100281290E-1,-2.057827413E-1,-8.140382767E0,1.019820976E1
9.124401090E-1,-1.579262912E-1,-8.221738815E0,1.010728264E1
9.148520360E-1,-7.178468257E-2,-8.260024071E0,1.002592659E1
9.172640150E-1,2.871387079E-2,-8.307880402E0,9.987641335E0
9.196759940E-1,6.221338734E-2,-8.350951195E0,9.973284721E0
9.220879730E-1,1.292124242E-1,-8.389236450E0,1.001156998E1
9.244999000E-1,1.962114573E-1,-8.437092781E0,1.006899738E1
9.269118790E-1,2.201396823E-1,-8.494520187E0,1.009771156E1
9.293238590E-1,1.914258152E-1,-8.575876236E0,1.007378292E1
9.317357860E-1,1.483550072E-1,-8.709874153E0,9.958928108E0
9.341477650E-1,8.135596663E-2,-8.867800713E0,9.805787086E0
9.365597440E-1,-1.914258115E-2,-9.035298347E0,9.690931320E0
9.389716710E-1,-1.196411327E-1,-9.221938133E0,9.647860527E0
9.413836500E-1,-2.392822653E-1,-9.355937004E0,9.710074425E0
9.437956290E-1,-3.158525825E-1,-9.456435204E0,9.796216011E0
9.462076090E-1,-4.163511395E-1,-9.652647018E0,9.844072342E0
9.486195360E-1,-5.455635786E-1,-9.901499748E0,9.824930191E0
9.510315150E-1,-5.694918036E-1,-9.968499184E0,9.786644936E0
9.534434940E-1,-5.790630579E-1,-9.958928108E0,9.748359680E0
9.558554210E-1,-7.178468108E-1,-9.992427826E0,9.753145218E0
9.582674000E-1,-7.752745152E-1,-1.008335495E1,9.839286804E0
9.606793790E-1,-7.465606928E-1,-1.015035343E1,9.968499184E0
9.630913070E-1,-8.279166222E-1,-1.020778179E1,1.012164021E1
9.655032860E-1,-1.110269666E0,-1.027478027E1,1.019820976E1
9.679152650E-1,-1.306481123E0,-1.031785107E1,1.018863869E1
9.703272440E-1,-1.517049551E0,-1.039920712E1,1.013121128E1
9.727391710E-1,-1.497906923E0,-1.040877819E1,1.022213840E1
9.751511500E-1,-1.517049551E0,-1.034656525E1,1.027956581E1
9.775631290E-1,-1.588834286E0,-1.033699417E1,1.022213840E1
9.799751090E-1,-1.612762451E0,-1.033699417E1,1.013121128E1
9.823870360E-1,-1.584048629E0,-1.036092186E1,1.009292603E1
9.847990150E-1,-1.651047587E0,-1.032263660E1,1.014556789E1
9.872109940E-1,-1.746760488E0,-1.028435135E1,1.020299530E1
9.896229210E-1,-1.804188251E0,-1.026042366E1,1.020778179E1
9.920349000E-1,-1.847259045E0,-1.021735287E1,1.014556789E1
9.944468790E-1,-1.919043779E0,-1.015992451E1,1.004506969E1
9.968588070E-1,-2.019542217E0,-1.011206818E1,9.944570541E0
9.992707860E-1,-2.067398787E0,-1.003549862E1,9.934999466E0
1.001682765E0,-2.134397745E0,-1.003071213E1,9.920642853E0
1.004094744E0,-2.167897224E0,-9.954142570E0,9.934999466E0
1.006506671E0,-2.225325108E0,-9.872786522E0,9.915857315E0
1.008918650E0,-2.277967215E0,-9.781859398E0,9.872786522E0
1.011330629E0,-2.311466694E0,-9.681360245E0,9.848857880E0
1.013742557E0,-2.368894339E0,-9.552147865E0,9.858428955E0
1.016154536E0,-2.469393015E0,-9.346364975E0,9.920642853E0
1.018566515E0,-2.526820660E0,-9.135796547E0,9.978070259E0
1.020978442E0,-2.565105915E0,-8.949156761E0,1.002114105E1
1.023390421E0,-2.526820660E0,-8.791230202E0,1.005942631E1
1.025802400E0,-2.545963287E0,-8.700303078E0,1.010728264E1
1.028214379E0,-2.536391973E0,-8.614161491E0,1.015035343E1
1.030626307E0,-2.488535643E0,-8.528019905E0,1.015992451E1
1.033038286E0,-2.431107759E0,-8.432307243E0,1.016949654E1
1.035450265E0,-2.297109842E0,-8.288737297E0,1.017906761E1
1.037862244E0,-2.148754835E0,-8.212167740E0,1.022213840E1
1.040274171E0,-2.072184324E0,-8.135597229E0,1.032742214E1
1.042686150E0,-2.048256159E0,-8.030312538E0,1.036570740E1
1.045098129E0,-2.014756680E0,-7.776673794E0,1.047099209E1
1.047510057E0,-1.890329838E0,-7.594819069E0,1.058106136E1
1.049922036E0,-1.761117458E0,-7.566105366E0,1.051406288E1
1.052334015E0,-1.674975872E0,-7.633104324E0,1.036570740E1
1.054745942E0,-1.627119422E0,-7.700103283E0,1.021256733E1
1.057157921E0,-1.445264935E0,-7.767102242E0,1.023170948E1
1.059569900E0,-1.253839016E0,-7.676175117E0,1.026520920E1
1.061981879E0,-1.306481123E0,-7.570890903E0,1.014078236E1
1.064393807E0,-1.373480201E0,-7.484749317E0,1.003071213E1
1.066805786E0,-1.330409408E0,-7.551748276E0,9.820143700E0
1.069217713E0,-1.253839016E0,-7.590033531E0,9.614361763E0
1.071629692E0,-1.100698471E0,-7.633104324E0,9.480362892E0
1.074041671E0,-9.667003751E-1,-7.657032490E0,9.384650230E0
1.076453650E0,-9.523434043E-1,-7.628318787E0,9.255437851E0
1.078865577E0,-9.954141974E-1,-7.575676441E0,9.159725189E0
1.081277557E0,-1.033699393E0,-7.566105366E0,9.092725754E0
1.083689536E0,-9.619147182E-1,-7.609176159E0,9.025727272E0
1.086101515E0,-8.901300430E-1,-7.695317745E0,8.901300430E0
1.088513442E0,-8.183453679E-1,-7.805387497E0,8.772088051E0
1.090925421E0,-7.657032609E-1,-8.030312538E0,8.657232285E0
1.093337400E0,-7.609176040E-1,-8.279166222E0,8.561519623E0
1.095749327E0,-7.465606928E-1,-8.508877754E0,8.461020470E0
1.098161307E0,-7.513462901E-1,-8.724231720E0,8.365307808E0
1.100573286E0,-7.944171429E-1,-8.906085968E0,8.293522835E0
1.102985213E0,-8.614161611E-1,-9.025727272E0,8.260024071E0
1.105397192E0,-9.523434043E-1,-9.150154114E0,8.202595711E0
1.107809171E0,-9.714859724E-1,-9.154939651E0,8.245666504E0
1.110221150E0,-9.667003751E-1,-9.049654961E0,8.312665939E0
1.112633077E0,-9.571290612E-1,-8.934800148E0,8.389236450E0
1.115045057E0,-8.853443861E-1,-8.977870941E0,8.461020470E0
1.117457036E0,-7.657032609E-1,-9.274580956E0,8.508877754E0
1.119869015E0,-7.561319470E-1,-9.470791817E0,8.599804878E0
1.122280942E0,-8.135597110E-1,-9.561718941E0,8.662017822E0
1.124692921E0,-9.379864931E-1,-9.662218094E0,8.695517540E0
1.127104900E0,-9.667003751E-1,-9.724431038E0,8.762516975E0
1.129516827E0,-9.667003751E-1,-9.695717812E0,8.958727837E0
1.131928807E0,-1.019342422E0,-9.690931320E0,9.078369141E0
1.134340786E0,-1.100698471E0,-9.714859962E0,9.068798065E0
1.136752713E0,-1.138983607E0,-9.743574142E0,9.001798630E0
1.139164692E0,-1.143769264E0,-9.753145218E0,8.977870941E0
1.141576671E0,-1.182054400E0,-9.824930191E0,9.001798630E0
1.143988598E0,-1.249053478E0,-9.853643417E0,9.073583603E0
1.146400577E0,-1.292124271E0,-9.858428955E0,9.140582085E0
1.148812557E0,-1.258624673E0,-9.839286804E0,9.250652313E0
1.151224536E0,-1.172483087E0,-9.848857880E0,9.379864693E0
1.153636411E0,-1.129412293E0,-9.848857880E0,9.466006279E0
1.156048442E0,-1.105484009E0,-9.820143700E0,9.513862610E0
1.158460421E0,-1.129412293E0,-9.805787086E0,9.518648148E0
1.160872348E0,-1.191625714E0,-9.786644936E0,9.518648148E0
1.163284327E0,-1.196411371E0,-9.729216576E0,9.561718941E0
1.165696307E0,-1.086341500E0,-9.614361763E0,9.714859962E0
1.168108286E0,-9.332008362E-1,-9.461220741E0,9.920642853E0
1.170520213E0,-8.518448472E-1,-9.150154114E0,1.014556789E1
1.172932192E0,-8.709874153E-1,-8.848658562E0,1.037049294E1
1.175344171E0,-9.954141974E-1,-8.633303642E0,1.046620655E1
1.177756098E0,-1.115055323E0,-8.537590981E0,1.055234814E1
1.180168077E0,-1.057627559E0,-8.370093346E0,1.070070267E1
1.182580057E0,-9.236295223E-1,-8.236095428E0,1.082512951E1
1.184992036E0,-8.087740541E-1,-8.183453560E0,1.091605663E1
1.187403963E0,-7.561319470E-1,-8.106883049E0,1.101655579E1
1.189815942E0,-7.369893789E-1,-8.106883049E0,1.105005455E1
1.192227921E0,-7.322037220E-1,-8.164310455E0,1.107398319E1
1.194639848E0,-7.178468108E-1,-8.164310455E0,1.110748291E1
1.197051827E0,-6.652047038E-1,-8.082955360E0,1.113619614E1
1.199463807E0,-6.604190469E-1,-8.073383331E0,1.116969585E1
1.201875786E0,-7.178468108E-1,-8.126026154E0,1.105962658E1
1.204287713E0,-6.699903607E-1,-8.059026718E0,1.092084217E1
1.206699692E0,-5.838487148E-1,-8.078168869E0,1.088734341E1
1.209111671E0,-4.546363056E-1,-8.135597229E0,1.089212894E1
1.211523598E0,-4.115654826E-1,-8.197810173E0,1.089691448E1
1.213935577E0,-3.684946895E-1,-8.260024071E0,1.082034397E1
1.216347557E0,-3.014956415E-1,-8.255238533E0,1.070548820E1
1.218759484E0,-2.871387303E-1,-8.202595711E0,1.061456108E1
1.221171463E0,-2.249253243E-1,-8.140382767E0,1.060020447E1
1.223583442E0,-1.579262912E-1,-8.049455643E0,1.063370419E1
1.225995421E0,-1.483550072E-1,-8.015955925E0,1.065284634E1
1.228407348E0,-1.531406492E-1,-8.001599312E0,1.060499001E1
1.230819327E0,-1.435693651E-1,-8.011170387E0,1.051884842E1
1.233231307E0,-1.435693651E-1,-8.030312538E0,1.039442158E1
1.235643234E0,-1.674975902E-1,-8.102097511E0,1.028435135E1
1.238055213E0,-2.392822653E-1,-8.298309326E0,1.016949654E1
1.240467192E0,-3.493520916E-1,-8.532805443E0,1.003549862E1
1.242879119E0,-4.450650215E-1,-8.743373871E0,9.925428391E0
1.245291098E0,-5.120640397E-1,-8.901300430E0,9.815358162E0
1.247703077E0,-5.216353536E-1,-9.016156197E0,9.748359680E0
1.250115057E0,-5.790630579E-1,-9.159725189E0,9.738788605E0
1.252526984E0,-5.838487148E-1,-9.245866776E0,9.777072906E0
1.254938963E0,-6.460621357E-1,-9.432506561E0,9.829715729E0
1.257350942E0,-6.987041831E-1,-9.566504478E0,9.863214493E0
1.259762869E0,-7.178468108E-1,-9.604789734E0,9.925428391E0
1.262174848E0,-9.667003751E-1,-9.657432556E0,9.877572060E0
1.264586827E0,-1.220339537E0,-9.681360245E0,9.757930756E0
1.266998754E0,-1.263410330E0,-9.619147301E0,9.686145782E0
1.269410734E0,-1.344766378E0,-9.633503914E0,9.690931320E0
1.271822713E0,-1.344766378E0,-9.714859962E0,9.796216011E0
1.274234692E0,-1.253839016E0,-9.824930191E0,9.925428391E0
1.276646619E0,-1.316052437E0,-9.930213928E0,9.978070259E0
1.279058598E0,-1.406979680E0,-9.925428391E0,1.000678444E1
1.281470577E0,-1.478764415E0,-9.868000984E0,9.958928108E0
1.283882504E0,-1.593619823E0,-9.834501266E0,9.891928673E0
1.286294484E0,-1.646261930E0,-9.834501266E0,9.920642853E0
1.288706463E0,-1.698904037E0,-9.853643417E0,9.973284721E0
1.291118442E0,-1.756331801E0,-9.882357597E0,9.896714211E0
1.293530369E0,-1.847259045E0,-9.815358162E0,9.748359680E0
1.295942348E0,-1.899901152E0,-9.805787086E0,9.571290970E0
1.298354327E0,-1.904686809E0,-9.844072342E0,9.485149384E0
1.300766254E0,-1.899901152E0,-9.868000984E0,9.556933403E0
1.303178234E0,-1.914258122E0,-9.954142570E0,9.614361763E0
1.305590213E0,-1.952543259E0,-1.002592659E1,9.576076508E0
1.308002192E0,-2.038684845E0,-1.004028416E1,9.403793335E0
1.310414119E0,-2.143969059E0,-9.973284721E0,9.231510162E0
1.312826098E0,-2.254039049E0,-9.887143135E0,9.154939651E0
1.315238077E0,-2.335394859E0,-9.743574142E0,9.217152596E0
1.317650004E0,-2.368894339E0,-9.470791817E0,9.375079155E0
1.320061984E0,-2.311466694E0,-9.150154114E0,9.499505997E0
1.322473963E0,-2.210968018E0,-8.819944382E0,9.566504478E0
1.324885890E0,-2.139183521E0,-8.585447311E0,9.633503914E0
1.327297869E0,-2.120040894E0,-8.422736168E0,9.638289452E0
1.329709848E0,-2.148754835E0,-8.298309326E0,9.681360245E0
1.332121775E0,-2.172683001E0,-8.207381248E0,9.724431038E0
1.334533754E0,-2.148754835E0,-8.145168304E0,9.762716293E0
1.336945734E0,-2.115255117E0,-8.015955925E0,9.791430473E0
1.339357713E0,-2.091326952E0,-7.881958008E0,9.868000984E0
1.341769640E0,-2.009970903E0,-7.767102242E0,9.934999466E0
1.344181619E0,-1.914258122E0,-7.575676441E0,9.987641335E0
1.346593598E0,-1.828116536E0,-7.427321434E0,1.012164021E1
1.349005577E0,-1.665404558E0,-7.350750923E0,1.014556789E1
1.351417504E0,-1.507478237E0,-7.360322475E0,1.006899738E1
1.353829484E0,-1.445264935E0,-7.326822758E0,1.002114105E1
1.356241463E0,-1.325623751E0,-7.269395351E0,1.007856941E1
1.358653390E0,-1.268195987E0,-7.197610378E0,1.006421185E1
1.361065369E0,-1.201196909E0,-7.154539585E0,1.001635551E1
1.363477348E0,-1.115055323E0,-7.207181931E0,9.901499748E0
1.365889275E0,-9.571290612E-1,-7.269395351E0,9.695717812E0
1.368301254E0,-8.039883971E-1,-7.298109055E0,9.561718941E0
1.370713234E0,-6.556333899E-1,-7.302894592E0,9.590433121E0
1.373125213E0,-5.838487148E-1,-7.245467186E0,9.623932838E0
1.375537140E0,-6.556333899E-1,-7.202396393E0,9.537791252E0
1.377949119E0,-6.987041831E-1,-7.207181931E0,9.399007797E0
1.380361098E0,-6.412764788E-1,-7.245467186E0,9.202795982E0
1.382773025E0,-6.173482537E-1,-7.283751965E0,9.040083885E0
1.385185004E0,-5.790630579E-1,-7.350750923E0,8.915657043E0
1.387596984E0,-4.594219327E-1,-7.446464062E0,8.843872070E0
1.390008911E0,-3.349951804E-1,-7.594819069E0,8.772088051E0
1.392420890E0,-2.344966233E-1,-7.671389580E0,8.719446182E0
1.394832869E0,-1.292124242E-1,-7.747959614E0,8.685946465E0
1.397244848E0,-7.657032460E-2,-7.848458290E0,8.662017822E0
1.399656775E0,-7.178468257E-2,-8.025527000E0,8.642875671E0
1.402068754E0,-1.866401732E-1,-8.245666504E0,8.599804878E0
1.404480734E0,-2.919243574E-1,-8.480163574E0,8.561519623E0
1.406892661E0,-3.589234054E-1,-8.647661209E0,8.504091263E0
1.409304640E0,-4.450650215E-1,-8.872586250E0,8.461020470E0
1.411716619E0,-5.120640397E-1,-9.202795982E0,8.427521706E0
1.414128546E0,-5.503492355E-1,-9.442078590E0,8.494520187E0
1.416540525E0,-6.747759581E-1,-9.523433685E0,8.590232849E0
1.418952504E0,-7.848458290E-1,-9.623932838E0,8.681160927E0
1.421364484E0,-7.513462901E-1,-9.647860527E0,8.877371788E0
1.423776411E0,-6.891329288E-1,-9.585647583E0,9.073583603E0
1.426188390E0,-7.513462901E-1,-9.499505997E0,9.159725189E0
1.428600317E0,-7.609176040E-1,-9.466006279E0,9.140582085E0
1.431012296E0,-7.992027402E-1,-9.466006279E0,9.164510727E0
1.433424275E0,-8.135597110E-1,-9.533005714E0,9.284152031E0
1.435836254E0,-8.183453679E-1,-9.652647018E0,9.504291534E0
1.438248234E0,-8.662018180E-1,-9.729216576E0,9.647860527E0
1.440660161E0,-8.997012973E-1,-9.762716293E0,9.676574707E0
1.443072140E0,-9.475577474E-1,-9.801001549E0,9.671789169E0
1.445484119E0,-1.062413216E0,-9.815358162E0,9.690931320E0
1.447896046E0,-1.138983607E0,-9.839286804E0,9.762716293E0
1.450308025E0,-1.225125194E0,-9.781859398E0,9.844072342E0
1.452720004E0,-1.292124271E0,-9.724431038E0,9.848857880E0
1.455131932E0,-1.325623751E0,-9.671789169E0,9.796216011E0
1.457543911E0,-1.349551916E0,-9.662218094E0,9.738788605E0
1.459955890E0,-1.339980721E0,-9.667003632E0,9.781859398E0
1.462367869E0,-1.301695466E0,-9.681360245E0,9.934999466E0
1.464779796E0,-1.249053478E0,-9.657432556E0,1.009292603E1
1.467191775E0,-1.191625714E0,-9.667003632E0,1.015992451E1
1.469603754E0,-1.186840057E0,-9.681360245E0,1.010728264E1
1.472015682E0,-1.205982566E0,-9.681360245E0,1.005942631E1
1.474427661E0,-1.277767301E0,-9.686145782E0,1.008335495E1
1.476839640E0,-1.320838094E0,-9.590433121E0,1.013599682E1
1.479251567E0,-1.344766378E0,-9.399007797E0,1.027956581E1
1.481663546E0,-1.272981644E0,-9.107083321E0,1.044706345E1
1.484075525E0,-1.234696507E0,-8.863015175E0,1.059541893E1
1.486487504E0,-1.220339537E0,-8.671588898E0,1.081077290E1
1.488899432E0,-1.162911773E0,-8.384450912E0,1.101655579E1
1.491311411E0,-1.124626637E0,-8.082955360E0,1.125105190E1
1.493723390E0,-1.119840980E0,-7.958528042E0,1.138026428E1
1.496135317E0,-1.081555843E0,-7.992027760E0,1.139940739E1
1.498547296E0,-1.086341500E0,-8.059026718E0,1.126540947E1
1.500959275E0,-1.062413216E0,-8.063812256E0,1.114098263E1
1.503371202E0,-1.000199914E0,-7.948956966E0,1.115533924E1
1.505783182E0,-9.954141974E-1,-7.838887215E0,1.127498055E1
1.508195161E0,-1.095912814E0,-7.752745152E0,1.133719349E1
1.510607140E0,-1.272981644E0,-7.709674358E0,1.127019501E1
1.513019067E0,-1.344766378E0,-7.719245911E0,1.113619614E1
1.515431046E0,-1.296909928E0,-7.724031448E0,1.097348499E1
1.517843025E0,-1.234696507E0,-7.743174076E0,1.079641533E1
1.520254952E0,-1.153340459E0,-7.771887779E0,1.065284634E1
1.522666932E0,-1.076770186E0,-7.786244869E0,1.057627583E1
1.525078911E0,-1.009771109E0,-7.848458290E0,1.052841949E1
1.527490890E0,-9.236295223E-1,-7.896314621E0,1.052363396E1
1.529902817E0,-8.231309652E-1,-8.006384850E0,1.052841949E1
1.532314796E0,-7.561319470E-1,-8.082955360E0,1.049013424E1
1.534726775E0,-6.795616150E-1,-8.097311974E0,1.038963604E1
1.537138702E0,-7.178468108E-1,-8.059026718E0,1.025085258E1
1.539550682E0,-7.561319470E-1,-8.035098076E0,1.011206818E1
1.541962661E0,-7.752745152E-1,-8.054241180E0,1.000678444E1
1.544374588E0,-7.417750359E-1,-8.130811691E0,9.934999466E0
1.546786567E0,-6.843472719E-1,-8.260024071E0,9.877572060E0
1.549198546E0,-6.221339107E-1,-8.437092781E0,9.839286804E0
1.551610525E0,-5.934200287E-1,-8.599804878E0,9.815358162E0
1.554022452E0,-7.130611539E-1,-8.733802795E0,9.815358162E0
1.556434432E0,-9.523434043E-1,-8.877371788E0,9.772287369E0
1.558846411E0,-1.196411371E0,-9.049654961E0,9.638289452E0
1.561258338E0,-1.263410330E0,-9.231510162E0,9.513862610E0
1.563670317E0,-1.143769264E0,-9.375079155E0,9.470791817E0
1.566082296E0,-1.043270707E0,-9.403793335E0,9.470791817E0
1.568494275E0,-1.095912814E0,-9.355937004E0,9.513862610E0
1.570906202E0,-1.339980721E0,-9.365508080E0,9.537791252E0
1.573318182E0,-1.483550072E0,-9.394221306E0,9.547362328E0
1.575730161E0,-1.507478237E0,-9.389435768E0,9.580862045E0
1.578142088E0,-1.454836130E0,-9.408578873E0,9.657432556E0
1.580554067E0,-1.440479279E0,-9.470791817E0,9.686145782E0
1.582966046E0,-1.497906923E0,-9.561718941E0,9.643074989E0
1.585377973E0,-1.627119422E0,-9.600004196E0,9.585647583E0
1.587789952E0,-1.698904037E0,-9.580862045E0,9.566504478E0
1.590201932E0,-1.780260086E0,-9.489934921E0,9.499505997E0
1.592613911E0,-1.895115495E0,-9.442078590E0,9.446864128E0
1.595025838E0,-1.971685886E0,-9.370293617E0,9.360722542E0
1.597437817E0,-1.962114573E0,-9.341579437E0,9.322437286E0
1.599849796E0,-1.957328916E0,-9.322437286E0,9.284152031E0
1.602261723E0,-1.933400750E0,-9.269794464E0,9.255437851E0
1.604673702E0,-1.966900229E0,-9.207581520E0,9.241081238E0
1.607085682E0,-2.014756680E0,-9.164510727E0,9.183652878E0
1.609497609E0,-2.057827473E0,-9.102297783E0,9.111868858E0
1.611909588E0,-2.105684042E0,-9.020941734E0,9.087940216E0
1.614321567E0,-2.153540373E0,-8.977870941E0,9.097511292E0
1.616733494E0,-2.177468538E0,-8.915657043E0,9.107083321E0
1.619145473E0,-2.182254314E0,-8.853444099E0,9.107083321E0
1.621557452E0,-2.177468538E0,-8.752944946E0,9.097511292E0
1.623969432E0,-2.158325911E0,-8.662017822E0,9.102297783E0
1.626381359E0,-2.120040894E0,-8.528019905E0,9.178867340E0
1.628793286E0,-2.091326952E0,-8.370093346E0,9.265008926E0
1.631205317E0,-2.091326952E0,-8.207381248E0,9.327222824E0
1.633617244E0,-2.120040894E0,-8.073383331E0,9.379864693E0
1.636029223E0,-2.120040894E0,-7.982456207E0,9.403793335E0
1.638441150E0,-2.062613010E0,-7.891529083E0,9.446864128E0
1.640853129E0,-1.933400750E0,-7.910671711E0,9.456435204E0
1.643265109E0,-1.794616938E0,-7.929814339E0,9.485149384E0
1.645677088E0,-1.703689694E0,-7.872386456E0,9.566504478E0
1.648089067E0,-1.813759565E0,-7.585247993E0,9.714859962E0
1.650500994E0,-1.890329838E0,-7.278966427E0,9.815358162E0
1.652912973E0,-1.713261008E0,-7.317251682E0,9.762716293E0
1.655324952E0,-1.378265858E0,-7.350750923E0,9.791430473E0
1.657736879E0,-1.263410330E0,-7.240681171E0,9.887143135E0
1.660148859E0,-1.225125194E0,-7.063612461E0,1.007856941E1
1.662560838E0,-1.124626637E0,-6.991827965E0,1.013121128E1
1.664972817E0,-1.115055323E0,-6.939185619E0,1.007378292E1
1.667384744E0,-1.038485050E0,-6.872186661E0,9.954142570E0
1.669796723E0,-9.571290612E-1,-6.752545357E0,9.934999466E0
1.672208702E0,-9.044869542E-1,-6.819544315E0,9.868000984E0
1.674620629E0,-7.513462901E-1,-6.953542709E0,9.796216011E0
1.677032609E0,-5.168496966E-1,-7.039684296E0,9.734002113E0
1.679444588E0,-3.924229145E-1,-7.020541668E0,9.729216576E0
1.681856515E0,-3.254238665E-1,-7.082755089E0,9.714859962E0
1.684268442E0,-2.488535494E-1,-7.183253765E0,9.652647018E0
1.686680473E0,-1.579262912E-1,-7.312466145E0,9.533005714E0
1.689092452E0,-9.092725813E-2,-7.417750359E0,9.384650230E0
1.691504379E0,-6.699903309E-2,-7.460821152E0,9.293723106E0
1.693916359E0,-9.092725813E-2,-7.479963779E0,9.265008926E0
1.696328338E0,-8.135596663E-2,-7.484749317E0,9.269794464E0
1.698740265E0,-1.052841991E-1,-7.556533813E0,9.193224907E0
1.701152244E0,-1.148554832E-1,-7.642675400E0,9.064012527E0
1.703564223E0,-1.244267747E-1,-7.714460373E0,8.968298912E0
1.705976150E0,-7.657032460E-2,-7.762316704E0,8.987442017E0
1.708388129E0,-3.349951655E-2,-7.877171993E0,9.016156197E0
1.710800109E0,-2.392822690E-2,-8.073383331E0,9.020941734E0
1.713212088E0,-3.828516230E-2,-8.312665939E0,8.982656479E0
1.715624015E0,-8.614161611E-2,-8.504091263E0,8.963513374E0
1.718035994E0,-4.785645381E-2,-8.662017822E0,8.997013092E0
1.720447973E0,-4.307080805E-2,-8.872586250E0,9.035298347E0
1.722859900E0,-6.699903309E-2,-9.035298347E0,9.087940216E0
1.725271879E0,-1.244267747E-1,-9.068798065E0,9.154939651E0
1.727683859E0,-2.584248483E-1,-8.939585686E0,9.183652878E0
1.730095786E0,-4.833501875E-1,-8.863015175E0,9.178867340E0
1.732507765E0,-4.977070987E-1,-9.030512810E0,9.193224907E0
1.734919744E0,-4.259224236E-1,-9.207581520E0,9.317651749E0
1.737331723E0,-3.206382394E-1,-9.221938133E0,9.552147865E0
1.739743650E0,-2.919243574E-1,-9.355937004E0,9.743574142E0
1.742155629E0,-4.402793646E-1,-9.580862045E0,9.820143700E0
1.744567609E0,-6.939185858E-1,-9.590433121E0,9.781859398E0
1.746979536E0,-9.379864931E-1,-9.561718941E0,9.676574707E0
1.749391515E0,-1.033699393E0,-9.533005714E0,9.623932838E0
1.751803494E0,-9.571290612E-1,-9.489934921E0,9.791430473E0
1.754215421E0,-8.709874153E-1,-9.485149384E0,1.000678444E1
1.756627400E0,-8.805587292E-1,-9.576076508E0,1.015513897E1
1.759039379E0,-9.571290612E-1,-9.619147301E0,1.023649502E1
1.761451359E0,-1.048056364E0,-9.595218658E0,1.021256733E1
1.763863286E0,-1.148554921E0,-9.552147865E0,1.014078236E1
1.766275265E0,-1.225125194E0,-9.523433685E0,1.009292603E1
1.768687244E0,-1.253839016E0,-9.485149384E0,1.009292603E1
1.771099171E0,-1.263410330E0,-9.513862610E0,1.008814049E1
1.773511150E0,-1.282552958E0,-9.537791252E0,1.010728264E1
1.775923129E0,-1.339980721E0,-9.552147865E0,1.015035343E1
1.778335057E0,-1.426122308E0,-9.470791817E0,1.017428207E1
1.780746984E0,-1.397408366E0,-9.389435768E0,1.022213840E1
1.783159015E0,-1.378265858E0,-9.322437286E0,1.026999474E1
1.785570994E0,-1.325623751E0,-9.221938133E0,1.031785107E1
1.787982921E0,-1.349551916E0,-9.064012527E0,1.038006496E1
1.790394900E0,-1.435693622E0,-8.843872070E0,1.044706345E1
1.792806879E0,-1.478764415E0,-8.638090134E0,1.052841949E1
1.795218807E0,-1.464407444E0,-8.461020470E0,1.065763187E1
1.797630786E0,-1.421336651E0,-8.341380119E0,1.079641533E1
1.800042765E0,-1.421336651E0,-8.260024071E0,1.092084217E1
1.802454744E0,-1.406979680E0,-8.164310455E0,1.100219822E1
1.804866671E0,-1.435693622E0,-8.006384850E0,1.102612686E1
1.807278650E0,-1.464407444E0,-7.805387497E0,1.107398319E1
1.809690577E0,-1.397408366E0,-7.671389580E0,1.113141060E1
1.812102557E0,-1.349551916E0,-7.594819069E0,1.117448139E1
1.814514536E0,-1.335195065E0,-7.585247993E0,1.117448139E1
1.816926515E0,-1.359123230E0,-7.561319351E0,1.116012478E1
1.819338442E0,-1.378265858E0,-7.546962738E0,1.114576817E1
1.821750421E0,-1.287338614E0,-7.546962738E0,1.115533924E1
1.824162400E0,-1.143769264E0,-7.551748276E0,1.109791183E1
1.826574327E0,-1.009771109E0,-7.570890903E0,1.098784161E1
1.828986307E0,-9.427721500E-1,-7.542177200E0,1.092084217E1
1.831398286E0,-9.140582681E-1,-7.532605648E0,1.090170002E1
1.833810265E0,-9.379864931E-1,-7.499105930E0,1.085862923E1
1.836222192E0,-1.033699393E0,-7.441678524E0,1.077248764E1
1.838634171E0,-1.148554921E0,-7.379465103E0,1.064327526E1
1.841046150E0,-1.182054400E0,-7.408178806E0,1.047099209E1
1.843458077E0,-1.182054400E0,-7.484749317E0,1.027478027E1
1.845870057E0,-1.196411371E0,-7.556533813E0,1.004028416E1
1.848282036E0,-1.143769264E0,-7.628318787E0,9.863214493E0
1.850694015E0,-9.523434043E-1,-7.685746193E0,9.820143700E0
1.853105942E0,-7.082754970E-1,-7.795815945E0,9.820143700E0
1.855517921E0,-6.173482537E-1,-7.953742504E0,9.786644936E0
1.857929900E0,-7.417750359E-1,-8.082955360E0,9.676574707E0
1.860341827E0,-8.805587292E-1,-8.135597229E0,9.576076508E0
1.862753807E0,-9.044869542E-1,-8.197810173E0,9.489934921E0
1.865165786E0,-8.231309652E-1,-8.312665939E0,9.422935486E0
1.867577713E0,-7.130611539E-1,-8.484949112E0,9.408578873E0
1.869989692E0,-6.652047038E-1,-8.618947029E0,9.355937004E0
1.872401671E0,-7.226324677E-1,-8.681160927E0,9.279366493E0
1.874813598E0,-9.236295223E-1,-8.671588898E0,9.217152596E0
1.877225577E0,-1.143769264E0,-8.628518105E0,9.169296265E0
1.879637557E0,-1.359123230E0,-8.676374435E0,9.121439934E0
1.882049484E0,-1.435693622E0,-8.863015175E0,9.078369141E0
1.884461463E0,-1.335195065E0,-9.006584167E0,9.025727272E0
1.886873442E0,-1.253839016E0,-8.973084450E0,8.997013092E0
1.889285421E0,-1.272981644E0,-8.901300430E0,9.001798630E0
1.891697348E0,-1.387837172E0,-8.939585686E0,8.987442017E0
1.894109327E0,-1.430907965E0,-9.054440498E0,8.973084450E0
1.896521307E0,-1.450050473E0,-9.116654396E0,9.073583603E0
1.898933286E0,-1.478764415E0,-9.145368576E0,9.116654396E0
1.901345213E0,-1.497906923E0,-9.154939651E0,9.040083885E0
1.903757192E0,-1.521835208E0,-9.145368576E0,8.925228119E0
1.906169171E0,-1.622333765E0,-9.207581520E0,8.810373306E0
1.908581098E0,-1.732403636E0,-9.265008926E0,8.743373871E0
1.910993077E0,-1.856830359E0,-9.332008362E0,8.709874153E0
1.913405057E0,-1.938186288E0,-9.365508080E0,8.628518105E0
1.915816984E0,-2.062613010E0,-9.288937569E0,8.566305161E0
1.918228963E0,-1.990828395E0,-9.111868858E0,8.599804878E0
1.920640942E0,-1.856830359E0,-8.968298912E0,8.738588333E0
1.923052869E0,-1.732403636E0,-8.752944946E0,8.906085968E0
1.925464848E0,-1.607976794E0,-8.690732002E0,8.987442017E0
1.927876827E0,-1.521835208E0,-8.724231720E0,9.006584167E0
1.930288807E0,-1.426122308E0,-8.819944382E0,8.982656479E0
1.932700734E0,-1.397408366E0,-8.863015175E0,8.987442017E0
1.935112609E0,-1.416550994E0,-8.848658562E0,9.006584167E0
1.937524692E0,-1.450050473E0,-8.786444664E0,9.068798065E0
1.939936619E0,-1.526620865E0,-8.604590416E0,9.145368576E0
1.942348598E0,-1.641476393E0,-8.350951195E0,9.241081238E0
1.944760577E0,-1.698904037E0,-8.154739380E0,9.308079720E0
1.947172504E0,-1.713261008E0,-8.025527000E0,9.332008362E0
1.949584484E0,-1.674975872E0,-7.901100159E0,9.437292099E0
1.951996463E0,-1.545763373E0,-7.819744587E0,9.600004196E0
1.954408442E0,-1.316052437E0,-7.633104324E0,9.805787086E0
1.956820369E0,-1.182054400E0,-7.470392227E0,9.968499184E0
1.959232348E0,-1.067198873E0,-7.537391186E0,1.004506969E1
1.961644327E0,-1.028913736E0,-7.403393269E0,1.009771156E1
1.964056254E0,-1.024128079E0,-7.183253765E0,1.020299530E1
1.966468234E0,-1.038485050E0,-7.173682213E0,1.023170948E1
1.968880213E0,-1.091127157E0,-7.240681171E0,1.022692394E1
1.971292140E0,-8.231309652E-1,-7.250252724E0,1.028913784E1
1.973704119E0,-5.886343718E-1,-7.140182972E0,1.048056316E1
1.976116098E0,-5.168496966E-1,-7.034898758E0,1.064806080E1
1.978528077E0,-5.168496966E-1,-6.996613503E0,1.076291656E1
1.980940004E0,-5.072783828E-1,-7.140182972E0,1.057627583E1
1.983351984E0,-5.551348329E-1,-7.221538544E0,1.026999474E1
1.985763963E0,-5.407779217E-1,-7.298109055E0,9.973284721E0
1.988175890E0,-4.833501875E-1,-7.336394310E0,9.772287369E0
1.990587869E0,-3.254238665E-1,-7.274180889E0,9.796216011E0
1.992999848E0,-2.297109663E-1,-7.154539585E0,9.954142570E0
1.995411775E0,-1.100698411E-1,-7.073183537E0,1.008814049E1
1.997823754E0,-2.871387079E-2,-7.106683254E0,1.012164021E1
2.000235734E0,3.828516230E-2,-7.197610378E0,9.973284721E0
2.002647713E0,1.052841991E-1,-7.307680130E0,9.786644936E0
2.005059640E0,1.435693651E-1,-7.417750359E0,9.690931320E0
2.007471619E0,1.818545163E-1,-7.503891945E0,9.623932838E0
2.009883598E0,1.722832322E-1,-7.585247993E0,9.537791252E0
2.012295525E0,1.818545163E-1,-7.647460938E0,9.446864128E0
2.014707504E0,1.770688742E-1,-7.714460373E0,9.389435768E0
2.017119432E0,1.674975902E-1,-7.786244869E0,9.389435768E0
2.019531411E0,1.674975902E-1,-7.901100159E0,9.470791817E0
2.021943390E0,1.292124242E-1,-8.054241180E0,9.561718941E0
2.024355369E0,8.135596663E-2,-8.236095428E0,9.571290970E0
2.026767296E0,-1.435693540E-2,-8.484949112E0,9.461220741E0
2.029179275E0,-1.100698411E-1,-8.705088615E0,9.341579437E0
2.031591254E0,-1.866401732E-1,-8.853444099E0,9.317651749E0
2.034003234E0,-2.727817893E-1,-8.910871506E0,9.432506561E0
2.036415161E0,-5.168496966E-1,-9.111868858E0,9.542576790E0
2.038827140E0,-7.274180651E-1,-9.375079155E0,9.652647018E0
2.041239119E0,-7.896314859E-1,-9.446864128E0,9.734002113E0
2.043651046E0,-8.901300430E-1,-9.403793335E0,9.705288887E0
2.046063025E0,-1.052842021E0,-9.360722542E0,9.604789734E0
2.048475004E0,-1.100698471E0,-9.355937004E0,9.556933403E0
2.050886879E0,-1.014556766E0,-9.437292099E0,9.667003632E0
2.053298859E0,-8.757730722E-1,-9.480362892E0,9.982855797E0
2.055710890E0,-8.231309652E-1,-9.437292099E0,1.034177971E1
2.058122869E0,-9.044869542E-1,-9.389435768E0,1.052841949E1
2.060534796E0,-1.000199914E0,-9.461220741E0,1.046620655E1
2.062946723E0,-1.115055323E0,-9.513862610E0,1.024606609E1
2.065358754E0,-1.249053478E0,-9.542576790E0,1.006899738E1
2.067770682E0,-1.363908887E0,-9.580862045E0,1.002592659E1
2.070182661E0,-1.450050473E0,-9.614361763E0,1.011685371E1
2.072594640E0,-1.483550072E0,-9.671789169E0,1.015035343E1
2.075006619E0,-1.497906923E0,-9.609575272E0,1.012642574E1
2.077418546E0,-1.536192179E0,-9.480362892E0,1.009292603E1
2.079830525E0,-1.660618901E0,-9.375079155E0,1.011685371E1
2.082242504E0,-1.799402595E0,-9.284152031E0,1.015992451E1
2.084654432E0,-1.904686809E0,-9.207581520E0,1.014556789E1
2.087066411E0,-1.957328916E0,-9.044869423E0,1.009292603E1
2.089478390E0,-1.990828395E0,-8.973084450E0,1.000199890E1
2.091890317E0,-2.000399828E0,-8.915657043E0,9.982855797E0
2.094302244E0,-2.067398787E0,-8.796015739E0,1.006899738E1
2.096714275E0,-2.096112728E0,-8.638090134E0,1.020778179E1
2.099126202E0,-2.124826431E0,-8.508877754E0,1.036570740E1
2.101538182E0,-2.153540373E0,-8.370093346E0,1.041835022E1
2.103950161E0,-2.129612207E0,-8.236095428E0,1.040877819E1
2.106362088E0,-2.110469580E0,-8.126026154E0,1.039442158E1
2.108774067E0,-2.096112728E0,-7.977670670E0,1.041835022E1
2.111186046E0,-2.057827473E0,-7.781459332E0,1.056670475E1
2.113598025E0,-2.081755638E0,-7.561319351E0,1.070548820E1
2.116009952E0,-2.096112728E0,-7.422535896E0,1.082034397E1
2.118421932E0,-2.019542217E0,-7.408178806E0,1.083948612E1
2.120833911E0,-1.933400750E0,-7.341179848E0,1.080120182E1
2.123245838E0,-1.832902193E0,-7.221538544E0,1.082034397E1
2.125657817E0,-1.751546144E0,-7.125825882E0,1.083470058E1
2.128069796E0,-1.703689694E0,-7.063612461E0,1.082512951E1
2.130481775E0,-1.584048629E0,-7.082755089E0,1.078205872E1
2.132893702E0,-1.478764415E0,-7.044469833E0,1.074377346E1
2.135305682E0,-1.363908887E0,-7.020541668E0,1.072463131E1
2.137717661E0,-1.263410330E0,-7.049255371E0,1.071506023E1
2.140130317E0,-1.186840057E0,-7.077969551E0,1.064806080E1
2.142541567E0,-1.091127157E0,-7.063612461E0,1.044706345E1
2.144953546E0,-1.019342422E0,-7.063612461E0,1.022213840E1
2.147365473E0,-8.853443861E-1,-7.068397999E0,1.013121128E1
2.149777452E0,-8.566305041E-1,-7.015756130E0,1.014556789E1
2.152189432E0,-8.805587292E-1,-6.934400082E0,1.015513897E1
2.154601359E0,-1.000199914E0,-6.943971157E0,1.006421185E1
2.157013338E0,-1.067198873E0,-6.987041950E0,9.839286804E0
2.159425317E0,-1.095912814E0,-7.015756130E0,9.533005714E0
2.161837296E0,-1.062413216E0,-7.030112743E0,9.322437286E0
2.164249223E0,-9.571290612E-1,-6.963113785E0,9.279366493E0
2.166661202E0,-7.561319470E-1,-7.020541668E0,9.317651749E0
2.169073182E0,-5.886343718E-1,-7.173682213E0,9.298508644E0
2.171485109E0,-6.125625968E-1,-7.350750923E0,9.159725189E0
2.173897088E0,-7.848458290E-1,-7.470392227E0,8.992227554E0
2.176309067E0,-8.949156404E-1,-7.580461979E0,8.882157326E0
2.178720994E0,-1.028913736E0,-7.738388538E0,8.767302513E0
2.181132973E0,-1.162911773E0,-7.944170952E0,8.676374435E0
2.183544952E0,-1.100698471E0,-8.188239098E0,8.599804878E0
2.185956932E0,-9.523434043E-1,-8.360522270E0,8.532805443E0
2.188368859E0,-8.901300430E-1,-8.427521706E0,8.475378036E0
2.190780838E0,-9.044869542E-1,-8.456234932E0,8.480163574E0
2.193192817E0,-9.140582681E-1,-8.537590981E0,8.542376518E0
2.195604744E0,-1.004985452E0,-8.652446747E0,8.609375954E0
2.198016723E0,-1.105484009E0,-8.762516975E0,8.638090134E0
2.200428702E0,-1.215553880E0,-8.824729919E0,8.609375954E0
2.202840629E0,-1.325623751E0,-8.762516975E0,8.561519623E0
2.205252609E0,-1.359123230E0,-8.757730484E0,8.618947029E0
2.207664588E0,-1.277767301E0,-8.800801277E0,8.738588333E0
2.210076515E0,-1.249053478E0,-8.829515457E0,8.896514893E0
2.212488494E0,-1.225125194E0,-8.867800713E0,8.901300430E0
2.214900473E0,-1.249053478E0,-8.992227554E0,8.829515457E0
2.217312452E0,-1.306481123E0,-9.083154678E0,8.762516975E0
2.219724379E0,-1.368694544E0,-9.207581520E0,8.700303078E0
2.222136359E0,-1.430907965E0,-9.231510162E0,8.700303078E0
2.224548338E0,-1.488335729E0,-9.097511292E0,8.757730484E0
2.226960265E0,-1.588834286E0,-8.853444099E0,8.834300995E0
2.229372244E0,-1.646261930E0,-8.681160927E0,8.877371788E0
2.231784223E0,-1.560120344E0,-8.595019341E0,8.958727837E0
2.234196098E0,-1.430907965E0,-8.638090134E0,9.044869423E0
2.236608129E0,-1.383051515E0,-8.647661209E0,9.145368576E0
2.239020109E0,-1.320838094E0,-8.681160927E0,9.193224907E0
2.241432088E0,-1.268195987E0,-8.633303642E0,9.241081238E0
2.243844015E0,-1.263410330E0,-8.518448830E0,9.298508644E0
2.246255994E0,-1.263410330E0,-8.374878883E0,9.375079155E0
2.248667973E0,-1.244267821E0,-8.212167740E0,9.466006279E0
2.251079900E0,-1.253839016E0,-8.073383331E0,9.604789734E0
2.253491879E0,-1.249053478E0,-7.872386456E0,9.815358162E0
2.255903859E0,-1.220339537E0,-7.508677483E0,1.005464077E1
2.258315786E0,-1.143769264E0,-7.087540627E0,1.028435135E1
2.260727765E0,-1.081555843E0,-6.891329288E0,1.046142101E1
2.263139744E0,-1.038485050E0,-7.015756130E0,1.052363396E1
2.265551671E0,-9.140582681E-1,-7.149754047E0,1.052363396E1
2.267963650E0,-7.992027402E-1,-7.125825882E0,1.061934662E1
2.270375629E0,-8.183453679E-1,-7.125825882E0,1.065763187E1
2.272787609E0,-8.374879360E-1,-7.116254330E0,1.066241741E1
2.275199536E0,-7.896314859E-1,-7.049255371E0,1.068156052E1
2.277611515E0,-7.178468108E-1,-6.896114826E0,1.079162979E1
2.280023494E0,-6.269195080E-1,-6.838686943E0,1.104526901E1
2.282435421E0,-5.742774606E-1,-6.843472958E0,1.109312534E1
2.284847400E0,-5.024927258E-1,-6.915257454E0,1.087298584E1
2.287259379E0,-4.833501875E-1,-6.958328247E0,1.058584690E1
2.289671307E0,-5.407779217E-1,-7.030112743E0,1.041356373E1
2.292083286E0,-4.881358147E-1,-7.101897717E0,1.030349445E1
2.294495213E0,-3.637090325E-1,-7.125825882E0,1.023170948E1
2.296907244E0,-2.440679073E-1,-7.135396957E0,1.016949654E1
2.299319171E0,-1.004985496E-1,-7.135396957E0,1.014078236E1
2.301731098E0,4.785645287E-3,-7.130611420E0,1.022692394E1
2.304143129E0,1.914258115E-2,-7.130611420E0,1.028435135E1
2.306555057E0,7.657032460E-2,-7.092326164E0,1.025563812E1
2.308967036E0,1.244267747E-1,-7.101897717E0,1.016471100E1
2.311379015E0,1.674975902E-1,-7.121040344E0,1.000678444E1
2.313790942E0,1.818545163E-1,-7.207181931E0,9.882357597E0
2.316202921E0,2.153540403E-1,-7.288537979E0,9.791430473E0
2.318614900E0,2.440679073E-1,-7.345965385E0,9.762716293E0
2.321026879E0,2.632105052E-1,-7.456035137E0,9.791430473E0
2.323438807E0,2.105683982E-1,-7.609176159E0,9.781859398E0
2.325850786E0,9.571290761E-2,-7.795815945E0,9.738788605E0
2.328262765E0,-9.571290575E-3,-7.958528042E0,9.671789169E0
2.330674692E0,-6.221338734E-2,-8.135597229E0,9.609575272E0
2.333086671E0,-1.100698411E-1,-8.346165657E0,9.566504478E0
2.335498650E0,-1.483550072E-1,-8.532805443E0,9.561718941E0
2.337910577E0,-1.531406492E-1,-8.685946465E0,9.633503914E0
2.340322557E0,-1.962114573E-1,-8.791230202E0,9.681360245E0
2.342734536E0,-3.349951804E-1,-8.877371788E0,9.686145782E0
2.345146463E0,-4.737788737E-1,-8.982656479E0,9.652647018E0
2.347558442E0,-4.977070987E-1,-8.982656479E0,9.705288887E0
2.349970421E0,-5.072783828E-1,-8.973084450E0,9.834501266E0
2.352382400E0,-6.364908218E-1,-9.131011009E0,9.954142570E0
2.354794327E0,-7.369893789E-1,-9.226723671E0,1.006899738E1
2.357206307E0,-8.374879360E-1,-9.202795982E0,1.008814049E1
2.359618234E0,-9.475577474E-1,-9.178867340E0,1.003071213E1
2.362030213E0,-1.028913736E0,-9.212367058E0,9.987641335E0
2.364442192E0,-1.004985452E0,-9.217152596E0,1.000199890E1
2.366854171E0,-1.014556766E0,-9.221938133E0,1.011206818E1
2.369266098E0,-1.138983607E0,-9.226723671E0,1.024606609E1
2.371678077E0,-1.296909928E0,-9.202795982E0,1.027956581E1
2.374090057E0,-1.483550072E0,-9.159725189E0,1.020778179E1
2.376501984E0,-1.574477315E0,-9.145368576E0,1.007378292E1
2.378913963E0,-1.631905079E0,-9.140582085E0,9.992427826E0
2.381325942E0,-1.627119422E0,-9.111868858E0,1.001635551E1
2.383737921E0,-1.655833244E0,-9.035298347E0,1.005942631E1
2.386149848E0,-1.689332843E0,-8.977870941E0,1.005942631E1
2.388561827E0,-1.732403636E0,-8.901300430E0,9.987641335E0
2.390973807E0,-1.761117458E0,-8.863015175E0,9.877572060E0
2.393385734E0,-1.832902193E0,-8.819944382E0,9.829715729E0
2.395797713E0,-1.923829436E0,-8.757730484E0,9.882357597E0
2.398209692E0,-1.990828395E0,-8.681160927E0,9.958928108E0
2.400621671E0,-2.038684845E0,-8.571090698E0,1.000199890E1
2.403033598E0,-2.048256159E0,-8.394021988E0,9.968499184E0
2.405445577E0,-2.057827473E0,-8.202595711E0,9.925428391E0
2.407857557E0,-2.009970903E0,-7.992027760E0,9.973284721E0
2.410269432E0,-2.005185366E0,-7.810173035E0,1.007378292E1
2.412681463E0,-2.086541414E0,-7.618747234E0,1.017428207E1
2.415093442E0,-2.172683001E0,-7.446464062E0,1.021735287E1
2.417505369E0,-2.191825628E0,-7.322037220E0,1.022692394E1
2.419917348E0,-2.105684042E0,-7.235895634E0,1.022692394E1
2.422329327E0,-1.995614052E0,-7.168896675E0,1.021735287E1
2.424741307E0,-1.919043779E0,-7.140182972E0,1.022213840E1
2.427153234E0,-1.890329838E0,-7.087540627E0,1.027956581E1
2.429565213E0,-1.746760488E0,-6.991827965E0,1.041835022E1
2.431977140E0,-1.603191137E0,-6.862615108E0,1.047577763E1
2.434389119E0,-1.598405480E0,-6.723831654E0,1.044706345E1
2.436801098E0,-1.550549030E0,-6.714260101E0,1.040399265E1
2.439213077E0,-1.440479279E0,-6.766902447E0,1.034177971E1
2.441625004E0,-1.387837172E0,-6.766902447E0,1.022213840E1
2.444036984E0,-1.330409408E0,-6.723831654E0,1.022692394E1
2.446448963E0,-1.129412293E0,-6.637690067E0,1.029870892E1
2.448860890E0,-9.379864931E-1,-6.474977970E0,1.034177971E1
2.451272817E0,-9.427721500E-1,-6.470192432E0,1.016471100E1
2.453684848E0,-9.858429432E-1,-6.518048763E0,9.925428391E0
2.456096775E0,-9.810572863E-1,-6.556334019E0,9.748359680E0
2.458508754E0,-8.662018180E-1,-6.594619274E0,9.628718376E0
2.460920734E0,-8.039883971E-1,-6.647261143E0,9.533005714E0
2.463332713E0,-7.848458290E-1,-6.704689026E0,9.399007797E0
2.465744640E0,-7.465606928E-1,-6.795616150E0,9.221938133E0
2.468156619E0,-7.465606928E-1,-6.752545357E0,9.135796547E0
2.470568598E0,-6.460621357E-1,-6.709474564E0,9.087940216E0
2.472980525E0,-5.312066078E-1,-6.939185619E0,9.011369705E0
2.475392504E0,-3.924229145E-1,-7.345965385E0,8.872586250E0
2.477804484E0,-3.158525825E-1,-7.704888821E0,8.748159409E0
2.480216411E0,-3.302095234E-1,-7.862815380E0,8.705088615E0
2.482628390E0,-4.067798555E-1,-7.848458290E0,8.657232285E0
2.485040369E0,-4.689932466E-1,-7.810173035E0,8.623732567E0
2.487452348E0,-5.120640397E-1,-7.776673794E0,8.628518105E0
2.489864275E0,-5.216353536E-1,-7.738388538E0,8.652446747E0
2.492276254E0,-5.455635786E-1,-7.728816986E0,8.695517540E0
2.494688234E0,-5.790630579E-1,-7.724031448E0,8.690732002E0
2.497100161E0,-7.034898400E-1,-7.781459332E0,8.623732567E0
2.499512140E0,-8.518448472E-1,-7.886743546E0,8.547162056E0
2.501924119E0,-9.379864931E-1,-8.092526436E0,8.475378036E0
2.504336046E0,-8.949156404E-1,-8.341380119E0,8.489734650E0
2.506748025E0,-7.752745152E-1,-8.508877754E0,8.609375954E0
2.509160004E0,-7.274180651E-1,-8.618947029E0,8.695517540E0
2.511571984E0,-7.561319470E-1,-8.700303078E0,8.752944946E0
2.513983911E0,-8.039883971E-1,-8.757730484E0,8.786444664E0
2.516395890E0,-9.284151793E-1,-8.743373871E0,8.858229637E0
2.518807869E0,-9.571290612E-1,-8.662017822E0,8.968298912E0
2.521219796E0,-1.019342422E0,-8.647661209E0,9.068798065E0
2.523631775E0,-1.000199914E0,-8.685946465E0,9.131011009E0
2.526043754E0,-9.762716293E-1,-8.733802795E0,9.169296265E0
2.528455682E0,-1.057627559E0,-8.815158844E0,9.178867340E0
2.530867661E0,-1.134197950E0,-8.791230202E0,9.217152596E0
2.533279640E0,-1.196411371E0,-8.781659126E0,9.217152596E0
2.535691567E0,-1.268195987E0,-8.767302513E0,9.288937569E0
2.538103546E0,-1.292124271E0,-8.776873589E0,9.351150513E0
2.540515525E0,-1.306481123E0,-8.762516975E0,9.394221306E0
2.542927452E0,-1.268195987E0,-8.752944946E0,9.427721024E0
2.545339432E0,-1.253839016E0,-8.700303078E0,9.446864128E0
2.547751411E0,-1.292124271E0,-8.690732002E0,9.470791817E0
2.550163390E0,-1.287338614E0,-8.705088615E0,9.470791817E0
2.552575317E0,-1.272981644E0,-8.733802795E0,9.499505997E0
2.554987296E0,-1.277767301E0,-8.700303078E0,9.556933403E0
2.557399275E0,-1.268195987E0,-8.614161491E0,9.643074989E0
2.559811202E0,-1.244267821E0,-8.427521706E0,9.796216011E0
2.562223182E0,-1.129412293E0,-8.126026154E0,1.000678444E1
2.564635161E0,-9.906286001E-1,-7.814958572E0,1.024606609E1
2.567047088E0,-9.092726111E-1,-7.513463020E0,1.049491978E1
2.569459067E0,-9.140582681E-1,-7.317251682E0,1.072941685E1
2.571871046E0,-8.614161611E-1,-7.274180889E0,1.086820030E1
2.574282973E0,-8.422735929E-1,-7.283751965E0,1.085384369E1
2.576694952E0,-9.284151793E-1,-7.207181931E0,1.077248764E1
2.579106932E0,-1.004985452E0,-7.216753006E0,1.073420238E1
2.581518911E0,-1.086341500E0,-7.211967468E0,1.072941685E1
2.583930838E0,-9.810572863E-1,-7.111468792E0,1.088255692E1
2.586342817E0,-8.662018180E-1,-7.159325123E0,1.098305607E1
2.588754796E0,-6.699903607E-1,-7.178467751E0,1.100219822E1
2.591166723E0,-5.838487148E-1,-7.054041386E0,1.109312534E1
2.593578702E0,-7.034898400E-1,-7.006184578E0,1.109791183E1
2.595990682E0,-6.891329288E-1,-6.977470875E0,1.106441212E1
2.598402609E0,-6.364908218E-1,-6.953542709E0,1.095434189E1
2.600814588E0,-5.359922647E-1,-6.996613503E0,1.082034397E1
2.603226567E0,-4.402793646E-1,-6.982256413E0,1.076291656E1
2.605638546E0,-4.307080805E-1,-7.058826923E0,1.072941685E1
2.608050473E0,-4.498506486E-1,-7.111468792E0,1.068156052E1
2.610462452E0,-4.402793646E-1,-7.135396957E0,1.052841949E1
2.612874432E0,-4.019941986E-1,-7.164111137E0,1.034177971E1
2.615286359E0,-3.541377485E-1,-7.202396393E0,1.026042366E1
2.617698338E0,-3.110669553E-1,-7.293323517E0,1.026999474E1
2.620110317E0,-3.302095234E-1,-7.460821152E0,1.026520920E1
2.622522244E0,-3.972085714E-1,-7.575676441E0,1.019342422E1
2.624934223E0,-4.402793646E-1,-7.685746193E0,1.007378292E1
2.627346202E0,-4.594219327E-1,-7.791030407E0,9.958928108E0
2.629758129E0,-4.594219327E-1,-7.853243828E0,9.896714211E0
2.632170109E0,-4.259224236E-1,-7.920242786E0,9.882357597E0
2.634582088E0,-3.732803464E-1,-7.953742504E0,9.896714211E0
2.636994015E0,-3.684946895E-1,-7.968099594E0,9.901499748E0
2.639405994E0,-3.589234054E-1,-8.001599312E0,9.891928673E0
2.641817973E0,-3.589234054E-1,-8.011170387E0,9.896714211E0
2.644229952E0,-3.732803464E-1,-8.035098076E0,9.925428391E0
2.646641879E0,-4.067798555E-1,-8.025527000E0,9.982855797E0
2.649053859E0,-4.929214716E-1,-8.039883614E0,1.001635551E1
2.651465838E0,-6.747759581E-1,-8.054241180E0,1.000678444E1
2.653877765E0,-1.028913736E0,-8.149953842E0,9.868000984E0
2.656289744E0,-1.354337573E0,-8.374878883E0,9.719645500E0
2.658701723E0,-1.416550994E0,-8.561519623E0,9.638289452E0
2.661113650E0,-1.253839016E0,-8.628518105E0,9.705288887E0
2.663525629E0,-1.148554921E0,-8.719446182E0,9.777072906E0
2.665937609E0,-1.057627559E0,-8.800801277E0,9.858428955E0
2.668349588E0,-1.081555843E0,-8.877371788E0,9.973284721E0
2.670761515E0,-1.268195987E0,-8.963513374E0,9.997213364E0
2.673173494E0,-1.473978758E0,-8.963513374E0,9.949356079E0
2.675585473E0,-1.569691658E0,-8.939585686E0,9.882357597E0
2.677997400E0,-1.612762451E0,-8.867800713E0,9.844072342E0
2.680409379E0,-1.617548108E0,-8.848658562E0,9.810572624E0
2.682821359E0,-1.631905079E0,-8.805587769E0,9.839286804E0
2.685233286E0,-1.703689694E0,-8.714659691E0,9.848857880E0
2.687645265E0,-1.727617979E0,-8.647661209E0,9.824930191E0
2.690057244E0,-1.780260086E0,-8.604590416E0,9.791430473E0
2.692469171E0,-1.847259045E0,-8.580661774E0,9.695717812E0
2.694881150E0,-1.942971945E0,-8.532805443E0,9.652647018E0
2.697293129E0,-2.038684845E0,-8.504091263E0,9.609575272E0
2.699705109E0,-2.081755638E0,-8.441878319E0,9.590433121E0
2.702117036E0,-2.100898266E0,-8.350951195E0,9.518648148E0
2.704529015E0,-2.072184324E0,-8.264809608E0,9.461220741E0
2.706940994E0,-2.062613010E0,-8.197810173E0,9.442078590E0
2.709352921E0,-2.124826431E0,-8.121239662E0,9.446864128E0
2.711764900E0,-2.134397745E0,-8.025527000E0,9.485149384E0
2.714176879E0,-2.158325911E0,-7.920242786E0,9.513862610E0
2.716588807E0,-2.201396942E0,-7.848458290E0,9.499505997E0
2.719000786E0,-2.215753794E0,-7.719245911E0,9.513862610E0
2.721412765E0,-2.230110645E0,-7.590033531E0,9.552147865E0
2.723824692E0,-2.258824587E0,-7.460821152E0,9.600004196E0
2.726236671E0,-2.273181438E0,-7.350750923E0,9.671789169E0
2.728648650E0,-2.254039049E0,-7.250252724E0,9.743574142E0
2.731060629E0,-2.172683001E0,-7.116254330E0,9.762716293E0
2.733472557E0,-2.057827473E0,-6.972685337E0,9.810572624E0
2.735884536E0,-1.957328916E0,-6.805187702E0,9.877572060E0
2.738296515E0,-1.895115495E0,-6.666403770E0,9.997213364E0
2.740708442E0,-1.746760488E0,-6.513263226E0,1.012642574E1
2.743120421E0,-1.588834286E0,-6.427121639E0,1.015513897E1
2.745532400E0,-1.531406522E0,-6.379265308E0,1.013121128E1
2.747944327E0,-1.459621787E0,-6.278766632E0,1.015513897E1
2.750356307E0,-1.416550994E0,-6.230910301E0,1.012642574E1
2.752768286E0,-1.392622828E0,-6.226124287E0,1.005942631E1
2.755180213E0,-1.272981644E0,-6.254838467E0,9.982855797E0
2.757592192E0,-1.201196909E0,-6.283552170E0,9.844072342E0
2.760004171E0,-1.153340459E0,-6.245266914E0,9.753145218E0
2.762416150E0,-1.033699393E0,-6.226124287E0,9.781859398E0
2.764828077E0,-8.135597110E-1,-6.278766632E0,9.786644936E0
2.767240057E0,-5.886343718E-1,-6.369693756E0,9.705288887E0
2.769652036E0,-4.689932466E-1,-6.494120598E0,9.566504478E0
2.772063963E0,-4.019941986E-1,-6.541976929E0,9.446864128E0
2.774475942E0,-4.450650215E-1,-6.498906136E0,9.379864693E0
2.776887921E0,-5.264210105E-1,-6.460621357E0,9.355937004E0
2.779299848E0,-5.407779217E-1,-6.460621357E0,9.226723671E0
2.781711827E0,-5.455635786E-1,-6.474977970E0,9.083154678E0
2.784123807E0,-5.024927258E-1,-6.642475605E0,8.915657043E0
2.786535734E0,-4.354937077E-1,-6.853044033E0,8.786444664E0
2.788947713E0,-3.924229145E-1,-6.876972198E0,8.762516975E0
2.791359692E0,-3.493520916E-1,-6.824330330E0,8.781659126E0
2.793771671E0,-3.014956415E-1,-6.819544315E0,8.767302513E0
2.796183598E0,-2.632105052E-1,-6.948757172E0,8.714659691E0
2.798595577E0,-2.679961324E-1,-7.149754047E0,8.662017822E0
2.801007557E0,-2.871387303E-1,-7.374679565E0,8.628518105E0
2.803419484E0,-3.206382394E-1,-7.556533813E0,8.604590416E0
2.805831463E0,-3.254238665E-1,-7.762316704E0,8.614161491E0
2.808243442E0,-2.775674164E-1,-8.025527000E0,8.662017822E0
2.810655369E0,-2.440679073E-1,-8.183453560E0,8.752944946E0
2.813067348E0,-2.344966233E-1,-8.188239098E0,8.839086533E0
2.815479327E0,-2.488535494E-1,-8.145168304E0,8.910871506E0
2.817891254E0,-3.254238665E-1,-8.255238533E0,8.968298912E0
2.820303234E0,-4.354937077E-1,-8.312665939E0,9.035298347E0
2.822715213E0,-5.024927258E-1,-8.355736732E0,9.064012527E0
2.825127192E0,-5.359922647E-1,-8.346165657E0,9.078369141E0
2.827539119E0,-5.312066078E-1,-8.274380684E0,9.102297783E0
2.829951098E0,-5.072783828E-1,-8.226524353E0,9.212367058E0
2.832363077E0,-5.886343718E-1,-8.250452042E0,9.422935486E0
2.834775004E0,-5.934200287E-1,-8.532805443E0,9.628718376E0
2.837186984E0,-5.982056856E-1,-8.604590416E0,9.767501831E0
2.839598963E0,-6.221339107E-1,-8.599804878E0,9.738788605E0
2.842010942E0,-6.939185858E-1,-8.604590416E0,9.628718376E0
2.844422869E0,-7.752745152E-1,-8.585447311E0,9.643074989E0
2.846834848E0,-9.523434043E-1,-8.599804878E0,9.757930756E0
2.849246827E0,-1.076770186E0,-8.695517540E0,9.848857880E0
2.851658754E0,-1.091127157E0,-8.652446747E0,9.882357597E0
2.854070734E0,-1.091127157E0,-8.638090134E0,9.820143700E0
2.856482713E0,-1.052842021E0,-8.561519623E0,9.781859398E0
2.858894640E0,-1.076770186E0,-8.422736168E0,9.834501266E0
2.861306619E0,-1.115055323E0,-8.346165657E0,9.978070259E0
2.863718598E0,-1.124626637E0,-8.283951759E0,1.013121128E1
2.866130525E0,-1.091127157E0,-8.212167740E0,1.019820976E1
2.868542504E0,-1.019342422E0,-8.140382767E0,1.021735287E1
2.870954484E0,-9.619147182E-1,-8.068597794E0,1.026999474E1
2.873366411E0,-9.140582681E-1,-7.963313580E0,1.043270683E1
2.875778390E0,-9.092726111E-1,-7.829315662E0,1.060499001E1
2.878190369E0,-9.284151793E-1,-7.680960655E0,1.071506023E1
2.880602348E0,-9.906286001E-1,-7.633104324E0,1.074855900E1
2.883014275E0,-1.138983607E0,-7.580461979E0,1.069591713E1
2.885426254E0,-1.220339537E0,-7.513463020E0,1.067198944E1
2.887838234E0,-1.196411371E0,-7.322037220E0,1.074377346E1
2.890250161E0,-1.138983607E0,-7.034898758E0,1.094955635E1
2.892662140E0,-1.167697430E0,-6.915257454E0,1.112183952E1
2.895074119E0,-1.249053478E0,-7.010970116E0,1.112662506E1
2.897486046E0,-1.134197950E0,-7.130611420E0,1.099741268E1
2.899898025E0,-9.523434043E-1,-7.025327206E0,1.095912743E1
2.902310004E0,-8.709874153E-1,-7.006184578E0,1.095912743E1
2.904721932E0,-7.226324677E-1,-6.996613503E0,1.105962658E1
2.907133911E0,-6.077769399E-1,-6.963113785E0,1.114098263E1
2.909545890E0,-6.029912829E-1,-6.991827965E0,1.108833981E1
2.911957869E0,-6.412764788E-1,-6.972685337E0,1.102612686E1
2.914369796E0,-6.699903607E-1,-6.920042992E0,1.096869946E1
2.916781775E0,-7.465606928E-1,-6.876972198E0,1.092084217E1
2.919193754E0,-8.279166222E-1,-6.857829571E0,1.088255692E1
2.921605682E0,-9.044869542E-1,-6.843472958E0,1.078684425E1
2.924017661E0,-9.140582681E-1,-6.857829571E0,1.067198944E1
2.926429640E0,-8.566305041E-1,-6.915257454E0,1.051884842E1
2.928841567E0,-7.992027402E-1,-6.920042992E0,1.038006496E1
2.931253546E0,-7.752745152E-1,-6.900900364E0,1.026520920E1
2.933665525E0,-7.226324677E-1,-6.948757172E0,1.020778179E1
2.936077452E0,-5.838487148E-1,-7.168896675E0,1.017906761E1
2.938489432E0,-4.929214716E-1,-7.393822193E0,1.009771156E1
2.940901411E0,-4.594219327E-1,-7.542177200E0,9.973284721E0
2.943313338E0,-4.115654826E-1,-7.633104324E0,9.896714211E0
2.945725317E0,-3.972085714E-1,-7.690532207E0,9.844072342E0
2.948137296E0,-4.163511395E-1,-7.724031448E0,9.844072342E0
2.950549275E0,-5.216353536E-1,-7.733603001E0,9.853643417E0
2.952961202E0,-7.657032609E-1,-7.757531166E0,9.834501266E0
2.955373182E0,-1.019342422E0,-7.819744587E0,9.757930756E0
2.957785161E0,-1.177268744E0,-7.996813297E0,9.600004196E0
2.960197088E0,-1.210768223E0,-8.207381248E0,9.427721024E0
2.962609067E0,-1.052842021E0,-8.307880402E0,9.418149948E0
2.965021046E0,-8.374879360E-1,-8.317451477E0,9.499505997E0
2.967432973E0,-7.992027402E-1,-8.312665939E0,9.576076508E0
2.969844952E0,-8.422735929E-1,-8.298309326E0,9.614361763E0
2.972256932E0,-8.662018180E-1,-8.327022552E0,9.633503914E0
2.974668859E0,-9.236295223E-1,-8.336593628E0,9.662218094E0
2.977080838E0,-1.091127157E0,-8.288737297E0,9.676574707E0
2.979492817E0,-1.292124271E0,-8.231309891E0,9.623932838E0
2.981904796E0,-1.469193101E0,-8.212167740E0,9.552147865E0
2.984316723E0,-1.579262972E0,-8.250452042E0,9.513862610E0
2.986728702E0,-1.555334687E0,-8.303094864E0,9.480362892E0
2.989140682E0,-1.540977836E0,-8.327022552E0,9.461220741E0
2.991552609E0,-1.607976794E0,-8.350951195E0,9.403793335E0
2.993964588E0,-1.698904037E0,-8.327022552E0,9.346364975E0
2.996376567E0,-1.761117458E0,-8.317451477E0,9.284152031E0
2.998788494E0,-1.765903115E0,-8.283951759E0,9.217152596E0
3.001200473E0,-1.804188251E0,-8.240880966E0,9.169296265E0
3.003612452E0,-1.789831281E0,-8.207381248E0,9.188439369E0
3.006024432E0,-1.785045743E0,-8.178668022E0,9.217152596E0
3.008436359E0,-1.765903115E0,-8.159524918E0,9.188439369E0
3.010848338E0,-1.780260086E0,-8.111668587E0,9.121439934E0
3.013260265E0,-1.765903115E0,-8.059026718E0,9.078369141E0
3.015672244E0,-1.746760488E0,-7.963313580E0,9.073583603E0
3.018084223E0,-1.746760488E0,-7.944170952E0,9.097511292E0
3.020496202E0,-1.746760488E0,-7.881958008E0,9.140582085E0
3.022908129E0,-1.756331801E0,-7.791030407E0,9.135796547E0
3.025320109E0,-1.761117458E0,-7.652246952E0,9.154939651E0
3.027732036E0,-1.727617979E0,-7.556533813E0,9.178867340E0
3.030144015E0,-1.737189293E0,-7.427321434E0,9.250652313E0
3.032555994E0,-1.689332843E0,-7.288537979E0,9.336793900E0
3.034967973E0,-1.655833244E0,-7.202396393E0,9.370293617E0
3.037379900E0,-1.622333765E0,-7.068397999E0,9.437292099E0
3.039791879E0,-1.555334687E0,-6.963113785E0,9.489934921E0
3.042203859E0,-1.473978758E0,-6.905686378E0,9.542576790E0
3.044615786E0,-1.416550994E0,-6.838686943E0,9.643074989E0
3.047027765E0,-1.330409408E0,-6.709474564E0,9.748359680E0
3.049439744E0,-1.229910851E0,-6.551548481E0,9.877572060E0
3.051851723E0,-1.105484009E0,-6.460621357E0,9.973284721E0
3.054263650E0,-1.043270707E0,-6.498906136E0,9.944570541E0
3.056675629E0,-1.033699393E0,-6.556334019E0,9.844072342E0
3.059087557E0,-1.067198873E0,-6.489335060E0,9.824930191E0
3.061499536E0,-1.057627559E0,-6.460621357E0,9.915857315E0
3.063911515E0,-8.279166222E-1,-6.465406895E0,1.006899738E1
3.066323494E0,-6.269195080E-1,-6.278766632E0,1.015513897E1
3.068735421E0,-4.881358147E-1,-6.101697922E0,1.016471100E1
3.071147400E0,-4.259224236E-1,-6.087340832E0,1.004028416E1
3.073559379E0,-4.498506486E-1,-6.230910301E0,9.858428955E0
3.075971359E0,-3.972085714E-1,-6.326622963E0,9.757930756E0
3.078383286E0,-3.493520916E-1,-6.403193474E0,9.705288887E0
3.080795265E0,-3.302095234E-1,-6.441478729E0,9.681360245E0
3.083207244E0,-2.967100143E-1,-6.522834301E0,9.571290970E0
3.085619171E0,-2.632105052E-1,-6.465406895E0,9.504291534E0
3.088031150E0,-1.339980662E-1,-6.494120598E0,9.499505997E0
3.090443129E0,-3.828516230E-2,-6.719046116E0,9.442078590E0
3.092855057E0,-5.742774159E-2,-7.082755089E0,9.312865257E0
3.095266984E0,-1.339980662E-1,-7.398607731E0,9.183652878E0
3.097679015E0,-1.531406492E-1,-7.518248558E0,9.097511292E0
3.100090942E0,-1.579262912E-1,-7.513463020E0,9.068798065E0
3.102502921E0,-1.627119333E-1,-7.499105930E0,9.097511292E0
3.104914900E0,-1.483550072E-1,-7.489534855E0,9.154939651E0
3.107326827E0,-1.339980662E-1,-7.518248558E0,9.221938133E0
3.109738807E0,-1.627119333E-1,-7.556533813E0,9.260223389E0
3.112150786E0,-2.009970993E-1,-7.575676441E0,9.265008926E0
3.114562713E0,-1.914258152E-1,-7.556533813E0,9.250652313E0
3.116974692E0,-1.627119333E-1,-7.551748276E0,9.293723106E0
3.119386671E0,-1.004985496E-1,-7.542177200E0,9.327222824E0
3.121798650E0,-1.435693540E-2,-7.599604607E0,9.422935486E0
3.124210577E0,-2.871387079E-2,-7.724031448E0,9.533005714E0
3.126622557E0,-1.292124242E-1,-7.910671711E0,9.595218658E0
3.129034536E0,-3.206382394E-1,-8.169096947E0,9.552147865E0
3.131446463E0,-4.115654826E-1,-8.374878883E0,9.499505997E0
3.133858442E0,-4.498506486E-1,-8.432307243E0,9.466006279E0
3.136270421E0,-4.402793646E-1,-8.417949677E0,9.518648148E0
3.138682348E0,-5.120640397E-1,-8.379665375E0,9.676574707E0
3.141094327E0,-6.508477330E-1,-8.518448830E0,9.772287369E0
3.143506307E0,-8.135597110E-1,-8.705088615E0,9.863214493E0
3.145918234E0,-8.135597110E-1,-8.724231720E0,9.939785004E0
3.148330213E0,-8.039883971E-1,-8.666803360E0,9.925428391E0
3.150742192E0,-8.422735929E-1,-8.638090134E0,9.915857315E0
3.153154171E0,-8.997012973E-1,-8.671588898E0,9.949356079E0
3.155566098E0,-9.810572863E-1,-8.633303642E0,9.978070259E0
3.157978077E0,-1.057627559E0,-8.638090134E0,1.002114105E1
3.160390057E0,-1.138983607E0,-8.642875671E0,1.007856941E1
3.162801984E0,-1.182054400E0,-8.657232285E0,1.012164021E1
3.165213963E0,-1.287338614E0,-8.705088615E0,1.011685371E1
3.167625942E0,-1.349551916E0,-8.719446182E0,1.007856941E1
3.170037869E0,-1.344766378E0,-8.633303642E0,1.007856941E1
3.172449848E0,-1.349551916E0,-8.475378036E0,1.012164021E1
3.174861827E0,-1.378265858E0,-8.374878883E0,1.015035343E1
3.177273702E0,-1.354337573E0,-8.283951759E0,1.022213840E1
3.179685734E0,-1.359123230E0,-8.149953842E0,1.029392338E1
3.182097713E0,-1.450050473E0,-8.035098076E0,1.036570740E1
3.184509692E0,-1.521835208E0,-8.006384850E0,1.042792130E1
3.186921619E0,-1.569691658E0,-7.972885132E0,1.045663452E1
3.189333598E0,-1.603191137E0,-7.843672752E0,1.048056316E1
3.191745577E0,-1.651047587E0,-7.709674358E0,1.051406288E1
3.194157452E0,-1.679761529E0,-7.590033531E0,1.055234814E1
3.196569484E0,-1.684547186E0,-7.503891945E0,1.059063339E1
3.198981463E0,-1.636690736E0,-7.427321434E0,1.063370419E1
3.201393390E0,-1.612762451E0,-7.341179848E0,1.069113159E1
3.203805369E0,-1.641476393E0,-7.259823799E0,1.074855900E1
3.206217348E0,-1.646261930E0,-7.188039303E0,1.078205872E1
3.208629275E0,-1.636690736E0,-7.073183537E0,1.082991505E1
3.211041254E0,-1.593619823E0,-6.924828529E0,1.088255692E1
3.213453234E0,-1.550549030E0,-6.857829571E0,1.090648556E1
3.215865161E0,-1.531406522E0,-6.857829571E0,1.090170002E1
3.218277140E0,-1.459621787E0,-6.824330330E0,1.090170002E1
3.220689119E0,-1.359123230E0,-6.766902447E0,1.090170002E1
3.223101046E0,-1.268195987E0,-6.728617191E0,1.090648556E1
3.225513025E0,-1.215553880E0,-6.685546398E0,1.090170002E1
3.227925004E0,-1.196411371E0,-6.585047722E0,1.088734341E1
3.230336984E0,-1.234696507E0,-6.546762943E0,1.086820030E1
3.232748911E0,-1.210768223E0,-6.585047722E0,1.077248764E1
3.235160890E0,-1.143769264E0,-6.623332977E0,1.061934662E1
3.237572869E0,-1.071984529E0,-6.618547440E0,1.045184898E1
3.239984796E0,-9.906286001E-1,-6.565905571E0,1.035613632E1
3.242396775E0,-9.092726111E-1,-6.589833736E0,1.032742214E1
3.244808754E0,-8.374879360E-1,-6.675975323E0,1.031785107E1
3.247220682E0,-8.087740541E-1,-6.762116909E0,1.022692394E1
3.249632661E0,-8.518448472E-1,-6.881757736E0,1.006899738E1
3.252044640E0,-1.019342422E0,-6.972685337E0,9.882357597E0
3.254456567E0,-1.186840057E0,-6.929614544E0,9.767501831E0
3.256868546E0,-1.191625714E0,-6.905686378E0,9.690931320E0
3.259280525E0,-1.167697430E0,-7.015756130E0,9.566504478E0
3.261692504E0,-1.263410330E0,-7.183253765E0,9.332008362E0
3.264104432E0,-1.354337573E0,-7.322037220E0,9.116654396E0
3.266516411E0,-1.272981644E0,-7.436892986E0,9.030512810E0
3.268928390E0,-9.667003751E-1,-7.451249599E0,9.083154678E0
3.271340317E0,-7.322037220E-1,-7.489534855E0,9.183652878E0
3.273752296E0,-6.699903607E-1,-7.570890903E0,9.245866776E0
3.276164275E0,-7.800601721E-1,-7.704888821E0,9.207581520E0
3.278576202E0,-9.523434043E-1,-7.881958008E0,9.097511292E0
3.280988182E0,-1.153340459E0,-7.948956966E0,8.997013092E0
3.283400161E0,-1.359123230E0,-7.896314621E0,8.944371223E0
3.285812140E0,-1.416550994E0,-7.752745152E0,8.930013657E0
3.288224067E0,-1.507478237E0,-7.690532207E0,8.839086533E0
3.290636046E0,-1.574477315E0,-7.719245911E0,8.762516975E0
3.293048025E0,-1.512263894E0,-7.795815945E0,8.772088051E0
3.295459952E0,-1.383051515E0,-7.944170952E0,8.786444664E0
3.297871932E0,-1.253839016E0,-8.073383331E0,8.863015175E0
3.300283911E0,-1.263410330E0,-8.298309326E0,8.934800148E0
3.302695838E0,-1.282552958E0,-8.384450912E0,8.977870941E0
3.305107765E0,-1.301695466E0,-8.422736168E0,8.958727837E0
3.307519796E0,-1.301695466E0,-8.484949112E0,8.819944382E0
3.309931723E0,-1.349551916E0,-8.398807526E0,8.729017258E0
3.312343702E0,-1.464407444E0,-8.173882484E0,8.767302513E0
3.314755682E0,-1.603191137E0,-7.915457249E0,8.848658562E0
3.317167609E0,-1.655833244E0,-7.757531166E0,8.925228119E0
3.319579588E0,-1.665404558E0,-7.680960655E0,8.987442017E0
3.321991567E0,-1.631905079E0,-7.642675400E0,9.011369705E0
3.324403546E0,-1.536192179E0,-7.642675400E0,9.068798065E0
3.326815473E0,-1.445264935E0,-7.666603565E0,9.102297783E0
3.329227452E0,-1.411765337E0,-7.661818027E0,9.159725189E0
3.331639432E0,-1.359123230E0,-7.604390144E0,9.193224907E0
3.334051359E0,-1.234696507E0,-7.575676441E0,9.221938133E0
3.336463338E0,-1.191625714E0,-7.523034573E0,9.236295700E0
3.338875317E0,-1.258624673E0,-7.374679565E0,9.336793900E0
3.341287244E0,-1.383051515E0,-7.164111137E0,9.466006279E0
3.343699223E0,-1.421336651E0,-6.972685337E0,9.580862045E0
3.346111202E0,-1.426122308E0,-6.809973240E0,9.676574707E0
3.348523129E0,-1.354337573E0,-6.704689026E0,9.762716293E0
3.350935109E0,-1.272981644E0,-6.589833736E0,9.834501266E0
3.353347088E0,-1.249053478E0,-6.508477688E0,9.877572060E0
3.355759015E0,-1.344766378E0,-6.412764549E0,9.901499748E0
3.358170994E0,-1.368694544E0,-6.326622963E0,9.954142570E0
3.360582973E0,-1.201196909E0,-6.288337708E0,1.003549862E1
3.362994900E0,-8.757730722E-1,-6.350551128E0,1.014078236E1
3.365406879E0,-6.221339107E-1,-6.364908218E0,1.028435135E1
3.367818859E0,-6.029912829E-1,-6.192625046E0,1.048056316E1
3.370230838E0,-6.077769399E-1,-6.125626087E0,1.055234814E1
3.372642765E0,-6.077769399E-1,-6.216553211E0,1.036092186E1
3.375054744E0,-5.886343718E-1,-6.269195557E0,1.011206818E1
3.377466723E0,-4.785645306E-1,-6.250052929E0,1.006421185E1
3.379878650E0,-3.637090325E-1,-6.254838467E0,1.015035343E1
3.382290629E0,-3.493520916E-1,-6.250052929E0,1.031306553E1
3.384702609E0,-2.536391914E-1,-6.202196121E0,1.042313576E1
3.387114536E0,-1.292124242E-1,-6.192625046E0,1.034656525E1
3.389526515E0,-1.004985496E-1,-6.178267956E0,1.015513897E1
3.391938494E0,-8.614161611E-2,-6.211767673E0,1.007856941E1
3.394350421E0,-8.135596663E-2,-6.269195557E0,1.001156998E1
3.396762400E0,-5.264209956E-2,-6.374479294E0,9.930213928E0
3.399174379E0,-1.914258115E-2,-6.541976929E0,9.834501266E0
3.401586359E0,-3.349951655E-2,-6.637690067E0,9.719645500E0
3.403998286E0,-4.307080805E-2,-6.604190350E0,9.662218094E0
3.406410265E0,-2.871387079E-2,-6.666403770E0,9.633503914E0
3.408822244E0,4.785645287E-3,-6.876972198E0,9.614361763E0
3.411234171E0,5.264209956E-2,-7.058826923E0,9.600004196E0
3.413646150E0,4.307080805E-2,-7.159325123E0,9.547362328E0
3.416058129E0,4.785645381E-2,-7.231110096E0,9.485149384E0
3.418470057E0,3.349951655E-2,-7.312466145E0,9.446864128E0
3.420882036E0,-1.914258115E-2,-7.412964344E0,9.466006279E0
3.423294015E0,-6.699903309E-2,-7.551748276E0,9.504291534E0
3.425705942E0,-1.004985496E-1,-7.690532207E0,9.576076508E0
3.428117921E0,-1.100698411E-1,-7.858029366E0,9.604789734E0
3.430529900E0,-1.770688742E-1,-7.948956966E0,9.633503914E0
3.432941827E0,-3.062812984E-1,-8.039883614E0,9.590433121E0
3.435353754E0,-4.115654826E-1,-8.078168869E0,9.595218658E0
3.437765786E0,-3.972085714E-1,-8.197810173E0,9.681360245E0
3.440177765E0,-4.307080805E-1,-8.216953278E0,9.805787086E0
3.442589692E0,-5.982056856E-1,-8.135597229E0,9.829715729E0
3.445001671E0,-7.896314859E-1,-8.264809608E0,9.748359680E0
3.447413650E0,-7.896314859E-1,-8.264809608E0,9.781859398E0
3.449825577E0,-7.896314859E-1,-8.121239662E0,9.911071777E0
3.452237557E0,-8.662018180E-1,-8.202595711E0,9.973284721E0
3.454649536E0,-8.422735929E-1,-8.303094864E0,9.992427826E0
3.457061463E0,-7.752745152E-1,-8.283951759E0,1.005464077E1
3.459473442E0,-7.513462901E-1,-8.288737297E0,1.013121128E1
3.461885421E0,-8.374879360E-1,-8.408378601E0,1.023170948E1
3.464297348E0,-9.667003751E-1,-8.499305725E0,1.032263660E1
3.466709327E0,-1.081555843E0,-8.532805443E0,1.026520920E1
3.469121307E0,-1.182054400E0,-8.441878319E0,1.011206818E1
3.471533234E0,-1.373480201E0,-8.312665939E0,1.001635551E1
3.473945213E0,-1.536192179E0,-8.178668022E0,1.001156998E1
3.476357192E0,-1.584048629E0,-8.164310455E0,1.004506969E1
3.478769171E0,-1.550549030E0,-8.183453560E0,1.010249710E1
3.481181098E0,-1.545763373E0,-8.197810173E0,1.015992451E1
3.483593077E0,-1.555334687E0,-8.140382767E0,1.014556789E1
3.486005057E0,-1.555334687E0,-8.063812256E0,1.012164021E1
3.488416984E0,-1.569691658E0,-7.977670670E0,1.015035343E1
3.490828963E0,-1.584048629E0,-7.896314621E0,1.015992451E1
3.493240942E0,-1.603191137E0,-7.786244869E0,1.019342422E1
3.495652869E0,-1.679761529E0,-7.652246952E0,1.021256733E1
3.498064848E0,-1.689332843E0,-7.494320393E0,1.026999474E1
3.500476827E0,-1.703689694E0,-7.317251682E0,1.032742214E1
3.502888754E0,-1.718046665E0,-7.130611420E0,1.042313576E1
3.505300734E0,-1.751546144E0,-6.943971157E0,1.055234814E1
3.507712713E0,-1.775474429E0,-6.819544315E0,1.063848972E1
3.510124640E0,-1.789831281E0,-6.733402729E0,1.065763187E1
3.512536567E0,-1.804188251E0,-6.757331371E0,1.060020447E1
3.514948598E0,-1.694118381E0,-6.800402164E0,1.050449181E1
3.517360577E0,-1.641476393E0,-6.757331371E0,1.048056316E1
3.519772504E0,-1.593619823E0,-6.628118515E0,1.056670475E1
3.522184484E0,-1.464407444E0,-6.585047722E0,1.066241741E1
3.524596411E0,-1.301695466E0,-6.546762943E0,1.071506023E1
3.527008390E0,-1.205982566E0,-6.479763508E0,1.074855900E1
3.529420369E0,-1.129412293E0,-6.407979012E0,1.071984577E1
3.531832348E0,-1.186840057E0,-6.364908218E0,1.062891865E1
3.534244275E0,-1.229910851E0,-6.317051888E0,1.053799057E1
3.536656254E0,-1.220339537E0,-6.269195557E0,1.047099209E1
3.539068234E0,-1.191625714E0,-6.206982136E0,1.039442158E1
3.541480161E0,-1.138983607E0,-6.120840549E0,1.029870892E1
3.543892140E0,-1.071984529E0,-6.168696880E0,1.020299530E1
3.546304119E0,-9.906286001E-1,-6.297909260E0,1.003549862E1
3.548716098E0,-9.092726111E-1,-6.388836384E0,9.872786522E0
3.551128025E0,-9.044869542E-1,-6.455835342E0,9.781859398E0
3.553540004E0,-8.901300430E-1,-6.465406895E0,9.719645500E0
3.555951932E0,-7.800601721E-1,-6.527620316E0,9.647860527E0
3.558363911E0,-6.269195080E-1,-6.551548481E0,9.576076508E0
3.560775890E0,-5.120640397E-1,-6.575476646E0,9.499505997E0
3.563187869E0,-4.498506486E-1,-6.608976364E0,9.442078590E0
3.565599796E0,-5.024927258E-1,-6.685546398E0,9.322437286E0
3.568011775E0,-6.221339107E-1,-6.766902447E0,9.178867340E0
3.570423754E0,-7.609176040E-1,-6.819544315E0,9.054440498E0
3.572835682E0,-7.704889178E-1,-6.843472958E0,8.968298912E0
3.575247661E0,-6.604190469E-1,-6.982256413E0,8.930013657E0
3.577659640E0,-5.694918036E-1,-7.149754047E0,8.896514893E0
3.580071567E0,-5.551348329E-1,-7.331608772E0,8.843872070E0
3.582483546E0,-6.077769399E-1,-7.508677483E0,8.819944382E0
3.584895473E0,-6.508477330E-1,-7.618747234E0,8.791230202E0
3.587307452E0,-6.747759581E-1,-7.685746193E0,8.781659126E0
3.589719432E0,-5.886343718E-1,-7.728816986E0,8.796015739E0
3.592131411E0,-5.694918036E-1,-7.776673794E0,8.829515457E0
3.594543338E0,-6.317051649E-1,-7.771887779E0,8.834300995E0
3.596955317E0,-7.704889178E-1,-7.814958572E0,8.829515457E0
3.599367296E0,-8.422735929E-1,-7.805387497E0,8.843872070E0
3.601779275E0,-9.332008362E-1,-7.695317745E0,8.915657043E0
3.604191202E0,-1.004985452E0,-7.637889862E0,8.987442017E0
3.606603182E0,-1.129412293E0,-7.786244869E0,8.949156761E0
3.609015161E0,-1.138983607E0,-7.929814339E0,8.886942863E0
3.611427088E0,-1.105484009E0,-7.925028801E0,8.906085968E0
3.613839067E0,-1.134197950E0,-7.929814339E0,8.934800148E0
3.616251046E0,-1.244267821E0,-7.910671711E0,8.973084450E0
3.618662973E0,-1.263410330E0,-8.011170387E0,8.958727837E0
3.621074952E0,-1.220339537E0,-8.121239662E0,8.915657043E0
3.623486932E0,-1.234696507E0,-8.116454124E0,8.973084450E0
3.625898911E0,-1.234696507E0,-8.106883049E0,9.016156197E0
3.628310838E0,-1.296909928E0,-8.011170387E0,9.092725754E0
3.630722817E0,-1.277767301E0,-7.867600918E0,9.131011009E0
3.633134796E0,-1.115055323E0,-7.795815945E0,9.140582085E0
3.635546723E0,-9.619147182E-1,-7.858029366E0,9.183652878E0
3.637958702E0,-1.043270707E0,-7.814958572E0,9.308079720E0
3.640370682E0,-1.268195987E0,-7.609176159E0,9.456435204E0
3.642782609E0,-1.335195065E0,-7.408178806E0,9.528220177E0
3.645194588E0,-1.244267821E0,-7.307680130E0,9.523433685E0
3.647606567E0,-1.138983607E0,-7.278966427E0,9.576076508E0
3.650018494E0,-1.043270707E0,-7.240681171E0,9.690931320E0
3.652430473E0,-1.048056364E0,-7.140182972E0,9.844072342E0
3.654842452E0,-1.048056364E0,-7.039684296E0,9.949356079E0
3.657254379E0,-1.024128079E0,-6.929614544E0,1.002114105E1
3.659666359E0,-1.004985452E0,-6.857829571E0,1.006899738E1
3.662078338E0,-9.523434043E-1,-6.848258495E0,1.012164021E1
3.664490265E0,-9.571290612E-1,-6.886543751E0,1.020299530E1
3.666902244E0,-9.475577474E-1,-6.934400082E0,1.025563812E1
3.669314223E0,-8.901300430E-1,-6.987041950E0,1.027956581E1
3.671726202E0,-7.704889178E-1,-6.900900364E0,1.035135078E1
3.674138129E0,-7.369893789E-1,-6.623332977E0,1.050449181E1
3.676550109E0,-8.518448472E-1,-6.269195557E0,1.068634605E1
3.678962088E0,-8.997012973E-1,-6.221338749E0,1.072463131E1
3.681374015E0,-8.662018180E-1,-6.264409542E0,1.061934662E1
3.683785994E0,-8.135597110E-1,-6.264409542E0,1.047099209E1
3.686197973E0,-6.556333899E-1,-6.288337708E0,1.040877819E1
3.688609900E0,-4.929214716E-1,-6.350551128E0,1.038006496E1
3.691021879E0,-3.780659735E-1,-6.388836384E0,1.042313576E1
3.693433859E0,-2.488535494E-1,-6.388836384E0,1.055234814E1
3.695845786E0,-1.722832322E-1,-6.503692150E0,1.053320503E1
3.698257765E0,-1.387837082E-1,-6.508477688E0,1.042313576E1
3.700669744E0,-1.770688742E-1,-6.451049805E0,1.036570740E1
3.703081671E0,-2.009970993E-1,-6.541976929E0,1.034177971E1
3.705493650E0,-1.770688742E-1,-6.661618233E0,1.027478027E1
3.707905629E0,-1.770688742E-1,-6.671189308E0,1.013599682E1
3.710317557E0,-1.818545163E-1,-6.613761902E0,1.001156998E1
3.712729536E0,-1.770688742E-1,-6.618547440E0,9.954142570E0
3.715141515E0,-1.339980662E-1,-6.709474564E0,9.939785004E0
3.717553494E0,-1.100698411E-1,-6.867401123E0,9.939785004E0
3.719965421E0,-1.387837082E-1,-7.068397999E0,9.906285286E0
3.722377400E0,-1.770688742E-1,-7.216753006E0,9.820143700E0
3.724789379E0,-2.105683982E-1,-7.283751965E0,9.719645500E0
3.727201307E0,-2.344966233E-1,-7.369893551E0,9.657432556E0
3.729613286E0,-2.344966233E-1,-7.422535896E0,9.686145782E0
3.732025265E0,-2.440679073E-1,-7.470392227E0,9.719645500E0
3.734437192E0,-2.727817893E-1,-7.518248558E0,9.791430473E0
3.736849171E0,-3.349951804E-1,-7.594819069E0,9.820143700E0
3.739261150E0,-5.024927258E-1,-7.800601959E0,9.796216011E0
3.741673077E0,-6.843472719E-1,-8.097311974E0,9.710074425E0
3.744085057E0,-7.657032609E-1,-8.231309891E0,9.662218094E0
3.746497036E0,-7.657032609E-1,-8.216953278E0,9.686145782E0
3.748909015E0,-6.987041831E-1,-8.202595711E0,9.724431038E0
3.751320942E0,-7.034898400E-1,-8.202595711E0,9.757930756E0
3.753732921E0,-6.987041831E-1,-8.173882484E0,9.829715729E0
3.756144900E0,-7.226324677E-1,-8.015955925E0,9.954142570E0
3.758556827E0,-8.901300430E-1,-8.015955925E0,1.006899738E1
3.760968807E0,-1.019342422E0,-8.221738815E0,1.010249710E1
3.763380786E0,-1.124626637E0,-8.303094864E0,1.015035343E1
3.765792713E0,-1.268195987E0,-8.398807526E0,1.006899738E1
3.768204692E0,-1.263410330E0,-8.389236450E0,9.934999466E0
3.770616671E0,-1.349551916E0,-8.346165657E0,9.882357597E0
3.773028598E0,-1.450050473E0,-8.264809608E0,9.944570541E0
3.775440577E0,-1.526620865E0,-8.178668022E0,9.978070259E0
3.777852557E0,-1.603191137E0,-8.149953842E0,9.978070259E0
3.780264484E0,-1.641476393E0,-8.130811691E0,1.000199890E1
3.782676463E0,-1.651047587E0,-8.063812256E0,9.958928108E0
3.785088442E0,-1.708475351E0,-8.035098076E0,9.911071777E0
3.787500369E0,-1.775474429E0,-7.996813297E0,9.887143135E0
3.789912348E0,-1.823330879E0,-8.006384850E0,9.901499748E0
3.792324327E0,-1.847259045E0,-7.939385414E0,9.877572060E0
3.794736307E0,-1.852044702E0,-7.814958572E0,9.891928673E0
3.797148129E0,-1.794616938E0,-7.637889862E0,9.911071777E0
3.799560213E0,-1.770688772E0,-7.542177200E0,9.963713646E0
3.801972192E0,-1.808973908E0,-7.499105930E0,1.002114105E1
3.804384119E0,-1.861616015E0,-7.427321434E0,1.007856941E1
3.806796098E0,-1.880758643E0,-7.283751965E0,1.006899738E1
3.809208077E0,-1.885544300E0,-7.135396957E0,1.004506969E1
3.811620004E0,-1.899901152E0,-7.006184578E0,1.008335495E1
3.814031932E0,-1.895115495E0,-6.867401123E0,1.015035343E1
3.816443963E0,-1.871187329E0,-6.762116909E0,1.021735287E1
3.818855890E0,-1.861616015E0,-6.680760860E0,1.027478027E1
3.821267869E0,-1.847259045E0,-6.618547440E0,1.028913784E1
3.823679848E0,-1.818545222E0,-6.546762943E0,1.027956581E1
3.826091775E0,-1.775474429E0,-6.484549522E0,1.026520920E1
3.828503754E0,-1.746760488E0,-6.446264267E0,1.025563812E1
3.830915734E0,-1.698904037E0,-6.427121639E0,1.025563812E1
3.833327713E0,-1.694118381E0,-6.374479294E0,1.025563812E1
3.835739640E0,-1.655833244E0,-6.254838467E0,1.030827999E1
3.838151619E0,-1.569691658E0,-6.111268997E0,1.041356373E1
3.840563598E0,-1.411765337E0,-6.092126369E0,1.037049294E1
3.842975525E0,-1.234696507E0,-6.072983742E0,1.023170948E1
3.845387504E0,-1.143769264E0,-6.096911907E0,1.009771156E1
3.847799484E0,-1.043270707E0,-6.082555294E0,1.005464077E1
3.850211411E0,-1.014556766E0,-6.063412666E0,1.008814049E1
3.852623390E0,-1.052842021E0,-6.044270039E0,1.006421185E1
3.855035369E0,-1.134197950E0,-5.938985825E0,9.982855797E0
3.857447296E0,-1.095912814E0,-5.838487148E0,9.915857315E0
3.859859275E0,-9.906286001E-1,-5.843272686E0,9.810572624E0
3.862271254E0,-9.188438654E-1,-5.910272121E0,9.667003632E0
3.864683182E0,-7.752745152E-1,-6.044270039E0,9.518648148E0
3.867095161E0,-6.077769399E-1,-6.183053493E0,9.437292099E0
3.869507140E0,-5.407779217E-1,-6.293123722E0,9.312865257E0
3.871919119E0,-5.599204898E-1,-6.427121639E0,9.159725189E0
3.874331046E0,-6.077769399E-1,-6.513263226E0,9.073583603E0
3.876743025E0,-7.465606928E-1,-6.570691109E0,8.997013092E0
3.879155004E0,-8.231309652E-1,-6.618547440E0,8.973084450E0
3.881566932E0,-7.657032609E-1,-6.656832695E0,8.925228119E0
3.883978911E0,-6.604190469E-1,-6.738188744E0,8.843872070E0
3.886390890E0,-5.647061467E-1,-6.824330330E0,8.772088051E0
3.888802817E0,-5.455635786E-1,-6.963113785E0,8.700303078E0
3.891214796E0,-5.790630579E-1,-7.077969551E0,8.685946465E0
3.893626775E0,-6.125625968E-1,-7.192824841E0,8.705088615E0
3.896038702E0,-6.891329288E-1,-7.293323517E0,8.695517540E0
3.898450629E0,-7.992027402E-1,-7.408178806E0,8.671588898E0
3.900862661E0,-8.614161611E-1,-7.518248558E0,8.614161491E0
3.903274588E0,-8.614161611E-1,-7.508677483E0,8.628518105E0
3.905686567E0,-8.327022791E-1,-7.523034573E0,8.709874153E0
3.908098546E0,-8.135597110E-1,-7.570890903E0,8.786444664E0
3.910510473E0,-7.800601721E-1,-7.594819069E0,8.843872070E0
3.912922452E0,-7.465606928E-1,-7.724031448E0,8.863015175E0
3.915334432E0,-7.800601721E-1,-7.771887779E0,8.939585686E0
3.917746359E0,-8.997012973E-1,-7.676175117E0,9.111868858E0
3.920158338E0,-9.332008362E-1,-7.666603565E0,9.135796547E0
3.922570317E0,-8.997012973E-1,-7.800601959E0,9.054440498E0
3.924982296E0,-9.523434043E-1,-7.795815945E0,9.006584167E0
3.927394223E0,-1.129412293E0,-7.647460938E0,9.049654961E0
3.929806202E0,-1.263410330E0,-7.484749317E0,9.126225471E0
3.932218182E0,-1.177268744E0,-7.580461979E0,9.183652878E0
3.934630057E0,-1.028913736E0,-7.762316704E0,9.284152031E0
3.937042088E0,-1.067198873E0,-7.709674358E0,9.451649666E0
3.939454067E0,-1.067198873E0,-7.733603001E0,9.446864128E0
3.941865994E0,-1.062413216E0,-7.743174076E0,9.360722542E0
3.944277973E0,-1.143769264E0,-7.570890903E0,9.379864693E0
3.946689952E0,-1.162911773E0,-7.336394310E0,9.552147865E0
3.949101879E0,-1.110269666E0,-7.164111137E0,9.729216576E0
3.951513859E0,-1.009771109E0,-7.149754047E0,9.839286804E0
3.953925838E0,-8.805587292E-1,-7.226324558E0,9.891928673E0
3.956337817E0,-7.848458290E-1,-7.336394310E0,9.915857315E0
3.958749744E0,-8.087740541E-1,-7.345965385E0,9.978070259E0
3.961161723E0,-9.140582681E-1,-7.207181931E0,1.008335495E1
3.963573702E0,-1.014556766E0,-6.991827965E0,1.018863869E1
3.965985629E0,-1.028913736E0,-6.766902447E0,1.027478027E1
3.968397609E0,-1.052842021E0,-6.589833736E0,1.034177971E1
3.970809588E0,-1.086341500E0,-6.470192432E0,1.042792130E1
3.973221515E0,-1.028913736E0,-6.250052929E0,1.055234814E1
3.975633494E0,-9.762716293E-1,-6.111268997E0,1.070070267E1
3.978045473E0,-8.901300430E-1,-6.149554253E0,1.081555843E1
3.980457400E0,-7.800601721E-1,-6.297909260E0,1.077727318E1
3.982869379E0,-6.843472719E-1,-6.465406895E0,1.068156052E1
3.985281359E0,-5.982056856E-1,-6.556334019E0,1.065284634E1
3.987693286E0,-6.412764788E-1,-6.427121639E0,1.070548820E1
3.990105265E0,-6.987041831E-1,-6.216553211E0,1.079162979E1
3.992517244E0,-6.747759581E-1,-6.159125328E0,1.087298584E1
3.994929171E0,-6.029912829E-1,-6.183053493E0,1.084427261E1
3.997341150E0,-5.742774606E-1,-6.302694798E0,1.068634605E1
3.999753129E0,-5.838487148E-1,-6.436692715E0,1.048534870E1
4.002165057E0,-6.125625968E-1,-6.364908218E0,1.040399265E1
4.004577036E0,-5.407779217E-1,-6.307480335E0,1.047577763E1
4.006989015E0,-4.067798555E-1,-6.374479294E0,1.052841949E1
4.009400994E0,-3.589234054E-1,-6.546762943E0,1.044706345E1
4.011812921E0,-3.254238665E-1,-6.642475605E0,1.028913784E1
4.014224900E0,-2.727817893E-1,-6.570691109E0,1.021735287E1
4.016636879E0,-2.201396823E-1,-6.484549522E0,1.026520920E1
4.019048807E0,-1.866401732E-1,-6.527620316E0,1.032263660E1
4.021460786E0,-2.297109663E-1,-6.661618233E0,1.028913784E1
4.023872765E0,-2.727817893E-1,-6.805187702E0,1.013599682E1
4.026284692E0,-2.775674164E-1,-6.853044033E0,9.968499184E0
4.028696619E0,-2.632105052E-1,-6.881757736E0,9.877572060E0
4.031108650E0,-3.062812984E-1,-6.920042992E0,9.906285286E0
4.033520577E0,-3.445664644E-1,-7.010970116E0,9.958928108E0
4.035932557E0,-3.541377485E-1,-7.106683254E0,9.982855797E0
4.038344536E0,-4.115654826E-1,-7.216753006E0,9.906285286E0
4.040756515E0,-4.689932466E-1,-7.369893551E0,9.777072906E0
4.043168442E0,-4.929214716E-1,-7.475177765E0,9.724431038E0
4.045580421E0,-5.168496966E-1,-7.503891945E0,9.767501831E0
4.047992400E0,-5.647061467E-1,-7.456035137E0,9.863214493E0
4.050404327E0,-6.699903607E-1,-7.556533813E0,9.863214493E0
4.052816307E0,-7.848458290E-1,-7.767102242E0,9.738788605E0
4.055228286E0,-7.274180651E-1,-7.767102242E0,9.695717812E0
4.057640213E0,-6.795616150E-1,-7.561319351E0,9.805787086E0
4.060052192E0,-7.465606928E-1,-7.460821152E0,9.915857315E0
4.062464171E0,-9.427721500E-1,-7.633104324E0,9.887143135E0
4.064876098E0,-1.004985452E0,-7.834101200E0,9.824930191E0
4.067288077E0,-8.327022791E-1,-7.767102242E0,9.810572624E0
4.069700057E0,-8.470591903E-1,-7.508677483E0,9.877572060E0
4.072111984E0,-1.095912814E0,-7.513463020E0,9.968499184E0
4.074523963E0,-1.311266780E0,-7.738388538E0,9.992427826E0
4.076935942E0,-1.397408366E0,-7.867600918E0,9.958928108E0
4.079347869E0,-1.430907965E0,-7.901100159E0,9.834501266E0
4.081759848E0,-1.430907965E0,-7.920242786E0,9.748359680E0
4.084171827E0,-1.464407444E0,-7.905886173E0,9.738788605E0
4.086583754E0,-1.521835208E0,-7.862815380E0,9.781859398E0
4.088995734E0,-1.507478237E0,-7.886743546E0,9.796216011E0
4.091407661E0,-1.507478237E0,-7.896314621E0,9.743574142E0
4.093819640E0,-1.564906001E0,-7.805387497E0,9.643074989E0
4.096231619E0,-1.636690736E0,-7.652246952E0,9.595218658E0
4.098643598E0,-1.775474429E0,-7.551748276E0,9.604789734E0
4.101055577E0,-1.856830359E0,-7.499105930E0,9.652647018E0
4.103467504E0,-1.880758643E0,-7.446464062E0,9.686145782E0
4.105879484E0,-1.866401672E0,-7.326822758E0,9.695717812E0
4.108291463E0,-1.785045743E0,-7.226324558E0,9.671789169E0
4.110703390E0,-1.765903115E0,-7.159325123E0,9.638289452E0
4.113115369E0,-1.708475351E0,-7.073183537E0,9.690931320E0
4.115527348E0,-1.679761529E0,-6.982256413E0,9.767501831E0
4.117939275E0,-1.670190215E0,-6.915257454E0,9.815358162E0
4.120351254E0,-1.641476393E0,-6.833901405E0,9.839286804E0
4.122763234E0,-1.593619823E0,-6.762116909E0,9.824930191E0
4.125175161E0,-1.560120344E0,-6.699903488E0,9.815358162E0
4.127587140E0,-1.545763373E0,-6.623332977E0,9.848857880E0
4.129999119E0,-1.540977836E0,-6.556334019E0,9.891928673E0
4.132411046E0,-1.540977836E0,-6.441478729E0,9.920642853E0
4.134823025E0,-1.493121386E0,-6.226124287E0,1.002114105E1
4.137235004E0,-1.378265858E0,-5.919843197E0,1.018385315E1
4.139646984E0,-1.301695466E0,-5.742774487E0,1.031306553E1
4.142058911E0,-1.196411371E0,-5.728417397E0,1.029392338E1
4.144470890E0,-1.220339537E0,-5.819344521E0,1.014556789E1
4.146882869E0,-1.277767301E0,-5.876772404E0,1.005464077E1
4.149294796E0,-1.148554921E0,-5.948556900E0,1.002114105E1
4.151706775E0,-9.284151793E-1,-5.900700569E0,1.001156998E1
4.154118754E0,-9.236295223E-1,-5.819344521E0,1.000678444E1
4.156530682E0,-9.523434043E-1,-5.833701611E0,9.911071777E0
4.158942661E0,-9.571290612E-1,-5.871986866E0,9.777072906E0
4.161354640E0,-8.662018180E-1,-5.881557941E0,9.676574707E0
4.163766567E0,-7.609176040E-1,-5.862415314E0,9.681360245E0
4.166178546E0,-6.508477330E-1,-5.891129494E0,9.705288887E0
4.168590525E0,-5.694918036E-1,-5.934200287E0,9.609575272E0
4.171002504E0,-4.977070987E-1,-5.867201328E0,9.504291534E0
4.173414432E0,-4.115654826E-1,-5.938985825E0,9.379864693E0
4.175826359E0,-3.158525825E-1,-6.072983742E0,9.303294182E0
4.178238390E0,-2.488535494E-1,-6.264409542E0,9.226723671E0
4.180650317E0,-2.392822653E-1,-6.417550564E0,9.154939651E0
4.183062296E0,-2.632105052E-1,-6.546762943E0,9.078369141E0
4.185474275E0,-2.679961324E-1,-6.594619274E0,9.006584167E0
4.187886202E0,-3.110669553E-1,-6.613761902E0,8.906085968E0
4.190298182E0,-3.206382394E-1,-6.661618233E0,8.867800713E0
4.192710161E0,-3.206382394E-1,-6.747759819E0,8.886942863E0
4.195122088E0,-3.110669553E-1,-6.814758778E0,8.896514893E0
4.197534067E0,-2.871387303E-1,-6.881757736E0,8.882157326E0
4.199946046E0,-3.014956415E-1,-6.939185619E0,8.882157326E0
4.202357973E0,-3.014956415E-1,-7.020541668E0,8.867800713E0
4.204769952E0,-3.062812984E-1,-7.068397999E0,8.886942863E0
4.207181932E0,-3.541377485E-1,-7.097112179E0,8.896514893E0
4.209593859E0,-4.498506486E-1,-7.130611420E0,8.930013657E0
4.212005838E0,-5.359922647E-1,-7.154539585E0,8.977870941E0
4.214417817E0,-5.790630579E-1,-7.211967468E0,9.011369705E0
4.216829796E0,-5.742774606E-1,-7.322037220E0,9.011369705E0
4.219241723E0,-5.264210105E-1,-7.527820110E0,9.030512810E0
4.221653702E0,-5.312066078E-1,-7.680960655E0,9.102297783E0
4.224065629E0,-6.029912829E-1,-7.757531166E0,9.131011009E0
4.226477609E0,-7.178468108E-1,-7.724031448E0,9.164510727E0
4.228889588E0,-6.508477330E-1,-7.757531166E0,9.212367058E0
4.231301567E0,-6.173482537E-1,-7.829315662E0,9.384650230E0
4.233713494E0,-6.843472719E-1,-7.905886173E0,9.561718941E0
4.236125473E0,-6.795616150E-1,-7.958528042E0,9.647860527E0
4.238537452E0,-7.944171429E-1,-7.977670670E0,9.590433121E0
4.240949379E0,-8.757730722E-1,-7.925028801E0,9.446864128E0
4.243361359E0,-9.044869542E-1,-7.944170952E0,9.432506561E0
4.245773338E0,-8.470591903E-1,-7.953742504E0,9.623932838E0
4.248185265E0,-7.752745152E-1,-7.920242786E0,9.829715729E0
4.250597244E0,-7.848458290E-1,-7.862815380E0,9.930213928E0
4.253009223E0,-7.561319470E-1,-7.728816986E0,9.934999466E0
4.255421150E0,-7.992027402E-1,-7.580461979E0,9.963713646E0
4.257833129E0,-9.571290612E-1,-7.408178806E0,1.000199890E1
4.260245109E0,-1.119840980E0,-7.298109055E0,1.009771156E1
4.262657036E0,-1.162911773E0,-7.293323517E0,1.016471100E1
4.265069015E0,-1.148554921E0,-7.345965385E0,1.016471100E1
4.267480994E0,-1.143769264E0,-7.365108013E0,1.013121128E1
4.269892973E0,-1.129412293E0,-7.317251682E0,1.013599682E1
4.272304900E0,-1.148554921E0,-7.188039303E0,1.021256733E1
4.274716879E0,-1.110269666E0,-7.030112743E0,1.036570740E1
4.277128859E0,-1.067198873E0,-6.881757736E0,1.049491978E1
4.279540786E0,-1.081555843E0,-6.766902447E0,1.058106136E1
4.281952765E0,-1.143769264E0,-6.709474564E0,1.060020447E1
4.284364744E0,-1.210768223E0,-6.709474564E0,1.056191921E1
4.286776671E0,-1.234696507E0,-6.666403770E0,1.055713367E1
4.289188650E0,-1.234696507E0,-6.695117950E0,1.055713367E1
4.291600629E0,-1.201196909E0,-6.800402164E0,1.058106136E1
4.294012557E0,-1.038485050E0,-6.920042992E0,1.059541893E1
4.296424536E0,-8.949156404E-1,-6.886543751E0,1.062413216E1
4.298836515E0,-8.087740541E-1,-6.671189308E0,1.070548820E1
4.301248442E0,-8.231309652E-1,-6.345765591E0,1.086820030E1
4.303660421E0,-7.992027402E-1,-6.202196121E0,1.099741268E1
4.306072400E0,-7.082754970E-1,-6.235695839E0,1.104526901E1
4.308484327E0,-6.843472719E-1,-6.326622963E0,1.095434189E1
4.310896307E0,-6.987041831E-1,-6.503692150E0,1.079162979E1
4.313308286E0,-6.460621357E-1,-6.637690067E0,1.067198944E1
4.315720265E0,-5.742774606E-1,-6.537191391E0,1.062891865E1
4.318132192E0,-5.790630579E-1,-6.326622963E0,1.066241741E1
4.320544171E0,-6.412764788E-1,-6.211767673E0,1.071027374E1
4.322956150E0,-7.082754970E-1,-6.168696880E0,1.071984577E1
4.325368077E0,-6.604190469E-1,-6.288337708E0,1.064327526E1
4.327780057E0,-6.364908218E-1,-6.532405853E0,1.038963604E1
4.330192036E0,-6.843472719E-1,-6.613761902E0,1.017428207E1
4.332603963E0,-7.369893789E-1,-6.541976929E0,1.004506969E1
4.335015942E0,-7.609176040E-1,-6.537191391E0,1.004506969E1
4.337427921E0,-7.513462901E-1,-6.652047157E0,1.004028416E1
4.339839848E0,-7.322037220E-1,-6.790830612E0,9.944570541E0
4.342251827E0,-7.034898400E-1,-6.915257454E0,9.844072342E0
4.344663807E0,-6.843472719E-1,-6.963113785E0,9.767501831E0
4.347075734E0,-7.178468108E-1,-7.010970116E0,9.724431038E0
4.349487713E0,-6.747759581E-1,-7.015756130E0,9.748359680E0
4.351899692E0,-6.987041831E-1,-7.049255371E0,9.767501831E0
4.354311619E0,-7.369893789E-1,-7.135396957E0,9.705288887E0
4.356723598E0,-7.896314859E-1,-7.336394310E0,9.604789734E0
4.359135577E0,-8.997012973E-1,-7.570890903E0,9.489934921E0
4.361547504E0,-8.566305041E-1,-7.633104324E0,9.547362328E0
4.363959484E0,-8.805587292E-1,-7.590033531E0,9.667003632E0
4.366371463E0,-1.067198873E0,-7.724031448E0,9.671789169E0
4.368783442E0,-1.134197950E0,-7.881958008E0,9.595218658E0
4.371195369E0,-1.067198873E0,-7.829315662E0,9.547362328E0
4.373607348E0,-1.081555843E0,-7.676175117E0,9.523433685E0
4.376019327E0,-1.229910851E0,-7.628318787E0,9.533005714E0
4.378431254E0,-1.387837172E0,-7.671389580E0,9.600004196E0
4.380843234E0,-1.440479279E0,-7.642675400E0,9.647860527E0
4.383255213E0,-1.406979680E0,-7.585247993E0,9.576076508E0
4.385667140E0,-1.392622828E0,-7.657032490E0,9.485149384E0
4.388079119E0,-1.392622828E0,-7.719245911E0,9.451649666E0
4.390491098E0,-1.397408366E0,-7.719245911E0,9.561718941E0
4.392903025E0,-1.435693622E0,-7.709674358E0,9.638289452E0
4.395315004E0,-1.502692580E0,-7.733603001E0,9.580862045E0
4.397726984E0,-1.584048629E0,-7.695317745E0,9.461220741E0
4.400138911E0,-1.708475351E0,-7.594819069E0,9.408578873E0
4.402550890E0,-1.785045743E0,-7.518248558E0,9.403793335E0
4.404962869E0,-1.785045743E0,-7.446464062E0,9.442078590E0
4.407374848E0,-1.746760488E0,-7.417750359E0,9.451649666E0
4.409786775E0,-1.703689694E0,-7.398607731E0,9.451649666E0
4.412198754E0,-1.708475351E0,-7.379465103E0,9.394221306E0
4.414610734E0,-1.732403636E0,-7.331608772E0,9.399007797E0
4.417022661E0,-1.785045743E0,-7.211967468E0,9.442078590E0
4.419434640E0,-1.789831281E0,-7.068397999E0,9.547362328E0
4.421846619E0,-1.732403636E0,-6.905686378E0,9.623932838E0
4.424258546E0,-1.694118381E0,-6.786045074E0,9.647860527E0
4.426670525E0,-1.689332843E0,-6.637690067E0,9.643074989E0
4.429082504E0,-1.679761529E0,-6.474977970E0,9.676574707E0
4.431494432E0,-1.679761529E0,-6.384050846E0,9.719645500E0
4.433906411E0,-1.665404558E0,-6.259624004E0,9.772287369E0
4.436318390E0,-1.646261930E0,-6.087340832E0,9.853643417E0
4.438730317E0,-1.627119422E0,-5.929414749E0,9.906285286E0
4.441142296E0,-1.612762451E0,-5.929414749E0,9.887143135E0
4.443554275E0,-1.598405480E0,-5.996413708E0,9.834501266E0
4.445966202E0,-1.540977836E0,-6.082555294E0,9.777072906E0
4.448378182E0,-1.435693622E0,-5.986842155E0,9.810572624E0
4.450790161E0,-1.296909928E0,-5.790630817E0,9.925428391E0
4.453202088E0,-1.100698471E0,-5.599205017E0,1.004506969E1
4.455614067E0,-9.619147182E-1,-5.580062389E0,1.004985523E1
4.458026046E0,-9.188438654E-1,-5.589633465E0,9.978070259E0
4.460438025E0,-9.092726111E-1,-5.575276852E0,9.930213928E0
4.462849952E0,-8.231309652E-1,-5.637490273E0,9.868000984E0
4.465261932E0,-6.891329288E-1,-5.642275810E0,9.901499748E0
4.467673911E0,-6.604190469E-1,-5.637490273E0,9.868000984E0
4.470085786E0,-6.843472719E-1,-5.690132141E0,9.791430473E0
4.472497817E0,-6.269195080E-1,-5.781059742E0,9.690931320E0
4.474909796E0,-5.168496966E-1,-5.848058701E0,9.600004196E0
4.477321723E0,-4.642075896E-1,-5.967699528E0,9.513862610E0
4.479733702E0,-4.689932466E-1,-6.077769279E0,9.437292099E0
4.482145682E0,-4.594219327E-1,-6.159125328E0,9.375079155E0
4.484557609E0,-4.354937077E-1,-6.221338749E0,9.332008362E0
4.486969588E0,-3.924229145E-1,-6.264409542E0,9.303294182E0
4.489381567E0,-3.206382394E-1,-6.307480335E0,9.269794464E0
4.491793494E0,-2.775674164E-1,-6.331408501E0,9.274580956E0
4.494205473E0,-2.775674164E-1,-6.374479294E0,9.260223389E0
4.496617452E0,-2.488535494E-1,-6.441478729E0,9.241081238E0
4.499029379E0,-2.440679073E-1,-6.479763508E0,9.217152596E0
4.501441359E0,-2.488535494E-1,-6.537191391E0,9.174081802E0
4.503853338E0,-2.584248483E-1,-6.608976364E0,9.140582085E0
4.506265317E0,-2.440679073E-1,-6.680760860E0,9.131011009E0
4.508677244E0,-2.823530734E-1,-6.814758778E0,9.150154114E0
4.511089223E0,-3.302095234E-1,-6.948757172E0,9.140582085E0
4.513501150E0,-3.541377485E-1,-7.020541668E0,9.154939651E0
4.515913129E0,-3.780659735E-1,-7.092326164E0,9.193224907E0
4.518325109E0,-4.259224236E-1,-7.077969551E0,9.250652313E0
4.520737088E0,-4.307080805E-1,-7.082755089E0,9.308079720E0
4.523149015E0,-3.924229145E-1,-7.097112179E0,9.336793900E0
4.525560994E0,-3.828516304E-1,-7.168896675E0,9.379864693E0
4.527972973E0,-4.737788737E-1,-7.326822758E0,9.389435768E0
4.530384900E0,-6.891329288E-1,-7.422535896E0,9.413364410E0
4.532796879E0,-7.800601721E-1,-7.379465103E0,9.446864128E0
4.535208859E0,-6.556333899E-1,-7.250252724E0,9.571290970E0
4.537620786E0,-4.642075896E-1,-7.274180889E0,9.638289452E0
4.540032765E0,-4.689932466E-1,-7.331608772E0,9.681360245E0
4.542444744E0,-6.843472719E-1,-7.331608772E0,9.724431038E0
4.544856723E0,-8.997012973E-1,-7.355536938E0,9.824930191E0
4.547268650E0,-8.470591903E-1,-7.570890903E0,9.848857880E0
4.549680629E0,-8.327022791E-1,-7.704888821E0,9.839286804E0
4.552092609E0,-8.805587292E-1,-7.680960655E0,9.834501266E0
4.554504536E0,-9.762716293E-1,-7.556533813E0,9.805787086E0
4.556916515E0,-1.138983607E0,-7.345965385E0,9.844072342E0
4.559328494E0,-1.143769264E0,-7.211967468E0,9.963713646E0
4.561740421E0,-9.667003751E-1,-7.331608772E0,1.006899738E1
4.564152400E0,-8.374879360E-1,-7.546962738E0,1.014556789E1
4.566564379E0,-8.997012973E-1,-7.637889862E0,1.019342422E1
4.568976307E0,-1.081555843E0,-7.527820110E0,1.017428207E1
4.571388286E0,-1.249053478E0,-7.389036179E0,1.009771156E1
4.573800265E0,-1.272981644E0,-7.350750923E0,1.007378292E1
4.576212192E0,-1.215553880E0,-7.331608772E0,1.009771156E1
4.578624171E0,-1.239482164E0,-7.302894592E0,1.016949654E1
4.581036150E0,-1.239482164E0,-7.159325123E0,1.023170948E1
4.583448077E0,-1.244267821E0,-7.001399040E0,1.029392338E1
4.585860057E0,-1.263410330E0,-6.867401123E0,1.039442158E1
4.588272036E0,-1.263410330E0,-6.728617191E0,1.049970531E1
4.590683963E0,-1.249053478E0,-6.580262184E0,1.062413216E1
4.593095942E0,-1.268195987E0,-6.379265308E0,1.069113159E1
4.595507921E0,-1.277767301E0,-6.163911343E0,1.077727318E1
4.597919848E0,-1.258624673E0,-6.063412666E0,1.083470058E1
4.600331827E0,-1.249053478E0,-6.159125328E0,1.085862923E1
4.602743807E0,-1.215553880E0,-6.264409542E0,1.078684425E1
4.605155734E0,-1.110269666E0,-6.168696880E0,1.072463131E1
4.607567713E0,-1.048056364E0,-6.096911907E0,1.071027374E1
4.609979692E0,-1.105484009E0,-6.125626087E0,1.068634605E1
4.612391671E0,-1.115055323E0,-6.149554253E0,1.071506023E1
4.614803598E0,-1.062413216E0,-6.139982700E0,1.074855900E1
4.617215577E0,-9.379864931E-1,-6.178267956E0,1.068156052E1
4.619627557E0,-8.039883971E-1,-6.053841114E0,1.062413216E1
4.622039484E0,-7.178468108E-1,-5.977271080E0,1.060020447E1
4.624451463E0,-6.747759581E-1,-5.977271080E0,1.061456108E1
4.626863442E0,-6.699903607E-1,-6.015556335E0,1.063848972E1
4.629275369E0,-6.939185858E-1,-6.154339790E0,1.057149029E1
4.631687348E0,-6.939185858E-1,-6.340980053E0,1.040399265E1
4.634099327E0,-6.843472719E-1,-6.417550564E0,1.019820976E1
4.636511254E0,-6.364908218E-1,-6.331408501E0,1.016471100E1
4.638923234E0,-6.077769399E-1,-6.235695839E0,1.017906761E1
4.641335213E0,-6.412764788E-1,-6.206982136E0,1.023170948E1
4.643747192E0,-7.082754970E-1,-6.302694798E0,1.021735287E1
4.646159119E0,-7.369893789E-1,-6.417550564E0,1.007378292E1
4.648571098E0,-6.987041831E-1,-6.494120598E0,9.891928673E0
4.650983025E0,-7.130611539E-1,-6.565905571E0,9.743574142E0
4.653395004E0,-7.513462901E-1,-6.628118515E0,9.681360245E0
4.655806984E0,-7.752745152E-1,-6.647261143E0,9.643074989E0
4.658218963E0,-7.369893789E-1,-6.652047157E0,9.628718376E0
4.660630890E0,-7.417750359E-1,-6.699903488E0,9.619147301E0
4.663042869E0,-7.657032609E-1,-6.762116909E0,9.542576790E0
4.665454848E0,-8.087740541E-1,-6.853044033E0,9.437292099E0
4.667866723E0,-8.949156404E-1,-6.977470875E0,9.379864693E0
4.670278754E0,-9.475577474E-1,-6.963113785E0,9.355937004E0
4.672690682E0,-9.092726111E-1,-6.843472958E0,9.418149948E0
4.675102661E0,-8.279166222E-1,-6.790830612E0,9.480362892E0
4.677514640E0,-8.709874153E-1,-7.006184578E0,9.432506561E0
4.679926619E0,-9.906286001E-1,-7.393822193E0,9.308079720E0
4.682338546E0,-1.062413216E0,-7.566105366E0,9.269794464E0
4.684750525E0,-1.071984529E0,-7.494320393E0,9.312865257E0
4.687162504E0,-1.000199914E0,-7.412964344E0,9.336793900E0
4.689574432E0,-9.092726111E-1,-7.345965385E0,9.365508080E0
4.691986411E0,-9.379864931E-1,-7.197610378E0,9.432506561E0
4.694398390E0,-1.143769264E0,-7.116254330E0,9.466006279E0
4.696810265E0,-1.392622828E0,-7.283751965E0,9.336793900E0
4.699222296E0,-1.464407444E0,-7.365108013E0,9.255437851E0
4.701634275E0,-1.454836130E0,-7.331608772E0,9.217152596E0
4.704046202E0,-1.416550994E0,-7.274180889E0,9.164510727E0
4.706458182E0,-1.454836130E0,-7.226324558E0,9.116654396E0
4.708870161E0,-1.502692580E0,-7.211967468E0,9.107083321E0
4.711282140E0,-1.493121386E0,-7.216753006E0,9.145368576E0
4.713694067E0,-1.450050473E0,-7.221538544E0,9.164510727E0
4.716106046E0,-1.416550994E0,-7.121040344E0,9.221938133E0
4.718518025E0,-1.373480201E0,-6.972685337E0,9.269794464E0
4.720929952E0,-1.344766378E0,-6.795616150E0,9.346364975E0
4.723341932E0,-1.354337573E0,-6.675975323E0,9.413364410E0
4.725753911E0,-1.349551916E0,-6.604190350E0,9.437292099E0
4.728165838E0,-1.359123230E0,-6.599404812E0,9.432506561E0
4.730577817E0,-1.373480201E0,-6.589833736E0,9.408578873E0
4.732989796E0,-1.383051515E0,-6.570691109E0,9.418149948E0
4.735401723E0,-1.378265858E0,-6.541976929E0,9.422935486E0
4.737813702E0,-1.378265858E0,-6.532405853E0,9.475577354E0
4.740225682E0,-1.387837172E0,-6.503692150E0,9.533005714E0
4.742637609E0,-1.387837172E0,-6.465406895E0,9.571290970E0
4.745049588E0,-1.378265858E0,-6.422336102E0,9.580862045E0
4.747461567E0,-1.330409408E0,-6.398407936E0,9.585647583E0
4.749873494E0,-1.210768223E0,-6.307480335E0,9.604789734E0
4.752285473E0,-1.134197950E0,-6.173482418E0,9.695717812E0
4.754697452E0,-1.086341500E0,-6.015556335E0,9.767501831E0
4.757109432E0,-1.048056364E0,-5.953342915E0,9.805787086E0
4.759521359E0,-9.523434043E-1,-5.919843197E0,9.887143135E0
4.761933338E0,-8.614161611E-1,-5.900700569E0,9.978070259E0
4.764345265E0,-6.843472719E-1,-5.876772404E0,1.001635551E1
4.766757244E0,-4.642075896E-1,-5.848058701E0,1.004028416E1
4.769169223E0,-3.302095234E-1,-5.781059742E0,1.009292603E1
4.771581202E0,-3.541377485E-1,-5.694917679E0,1.017906761E1
4.773993129E0,-3.732803464E-1,-5.699703693E0,1.022213840E1
4.776405109E0,-3.062812984E-1,-5.761917114E0,1.017428207E1
4.778817088E0,-2.584248483E-1,-5.814558983E0,1.010249710E1
4.781229015E0,-3.397808075E-1,-5.781059742E0,1.004028416E1
4.783640994E0,-3.589234054E-1,-5.675775528E0,1.002114105E1
4.786052973E0,-2.488535494E-1,-5.651846886E0,1.000199890E1
4.788464900E0,-1.339980662E-1,-5.714060307E0,9.930213928E0
4.790876827E0,-1.004985496E-1,-5.852844238E0,9.868000984E0
4.793288859E0,-1.435693651E-1,-6.044270039E0,9.748359680E0
4.795700786E0,-1.962114573E-1,-6.211767673E0,9.657432556E0
4.798112765E0,-1.962114573E-1,-6.283552170E0,9.614361763E0
4.800524744E0,-1.914258152E-1,-6.340980053E0,9.571290970E0
4.802936671E0,-1.339980662E-1,-6.398407936E0,9.528220177E0
4.805348650E0,-1.100698411E-1,-6.474977970E0,9.504291534E0
4.807760629E0,-5.742774159E-2,-6.551548481E0,9.480362892E0
4.810172609E0,4.785645287E-3,-6.604190350E0,9.451649666E0
4.812584536E0,-9.571290575E-3,-6.699903488E0,9.456435204E0
4.814996515E0,1.914258115E-2,-6.781259537E0,9.480362892E0
4.817408494E0,8.135596663E-2,-6.872186661E0,9.504291534E0
4.819820421E0,7.178468257E-2,-6.977470875E0,9.509077072E0
4.822232400E0,-5.264209956E-2,-7.034898758E0,9.518648148E0
4.824644379E0,-2.297109663E-1,-7.068397999E0,9.485149384E0
4.827056307E0,-3.541377485E-1,-7.092326164E0,9.451649666E0
4.829468286E0,-4.115654826E-1,-7.159325123E0,9.442078590E0
4.831880265E0,-3.732803464E-1,-7.144968510E0,9.485149384E0
4.834292192E0,-3.684946895E-1,-7.101897717E0,9.561718941E0
4.836704171E0,-4.067798555E-1,-7.044469833E0,9.647860527E0
4.839116150E0,-4.019941986E-1,-7.039684296E0,9.738788605E0
4.841528077E0,-3.062812984E-1,-7.164111137E0,9.829715729E0
4.843940057E0,-1.866401732E-1,-7.403393269E0,9.896714211E0
4.846352036E0,-2.679961324E-1,-7.551748276E0,9.915857315E0
4.848763963E0,-5.024927258E-1,-7.575676441E0,9.863214493E0
4.851175942E0,-7.465606928E-1,-7.590033531E0,9.815358162E0
4.853587921E0,-9.379864931E-1,-7.556533813E0,9.805787086E0
4.855999796E0,-1.009771109E0,-7.561319351E0,9.805787086E0
4.858411827E0,-1.000199914E0,-7.647460938E0,9.877572060E0
4.860823807E0,-9.092726111E-1,-7.719245911E0,9.958928108E0
4.863235786E0,-8.518448472E-1,-7.738388538E0,9.997213364E0
4.865647713E0,-8.422735929E-1,-7.762316704E0,1.002114105E1
4.868059692E0,-9.475577474E-1,-7.685746193E0,1.008335495E1
4.870471671E0,-1.038485050E0,-7.700103283E0,1.013121128E1
4.872883598E0,-1.052842021E0,-7.781459332E0,1.011206818E1
4.875295577E0,-1.172483087E0,-7.757531166E0,1.005942631E1
4.877707557E0,-1.383051515E0,-7.618747234E0,1.002592659E1
4.880119484E0,-1.536192179E0,-7.417750359E0,1.001156998E1
4.882531463E0,-1.545763373E0,-7.302894592E0,1.003071213E1
4.884943442E0,-1.512263894E0,-7.274180889E0,1.005464077E1
4.887355369E0,-1.459621787E0,-7.250252724E0,1.011685371E1
4.889767348E0,-1.450050473E0,-7.197610378E0,1.015513897E1
4.892179327E0,-1.483550072E0,-7.077969551E0,1.018863869E1
4.894591984E0,-1.502692580E0,-6.939185619E0,1.020778179E1
4.897003234E0,-1.531406522E0,-6.843472958E0,1.024606609E1
4.899415213E0,-1.493121386E0,-6.752545357E0,1.029870892E1
4.901827140E0,-1.459621787E0,-6.671189308E0,1.036092186E1
4.904239119E0,-1.450050473E0,-6.618547440E0,1.040399265E1
4.906651098E0,-1.435693622E0,-6.556334019E0,1.043270683E1
4.909063025E0,-1.469193101E0,-6.446264267E0,1.045663452E1
4.911475004E0,-1.502692580E0,-6.307480335E0,1.050449181E1
4.913886984E0,-1.459621787E0,-6.278766632E0,1.057149029E1
4.916298911E0,-1.359123230E0,-6.312266350E0,1.063848972E1
4.918710890E0,-1.287338614E0,-6.302694798E0,1.065284634E1
4.921122869E0,-1.325623751E0,-6.072983742E0,1.064327526E1
4.923534848E0,-1.368694544E0,-5.824130535E0,1.068634605E1
4.925946775E0,-1.316052437E0,-5.752345562E0,1.071984577E1
4.928358754E0,-1.268195987E0,-5.804987907E0,1.066241741E1
4.930770734E0,-1.210768223E0,-5.852844238E0,1.056670475E1
4.933182661E0,-1.095912814E0,-5.929414749E0,1.046142101E1
4.935594640E0,-9.475577474E-1,-6.001199245E0,1.037049294E1
4.938006619E0,-7.992027402E-1,-5.938985825E0,1.036570740E1
4.940418546E0,-8.279166222E-1,-5.919843197E0,1.039442158E1
4.942830525E0,-8.853443861E-1,-6.058627129E0,1.031306553E1
4.945242504E0,-9.475577474E-1,-6.250052929E0,1.017428207E1
4.947654432E0,-9.906286001E-1,-6.125626087E0,1.004985523E1
