"Time (s)","Gyroscope x (rad/s)","Gyroscope y (rad/s)","Gyroscope z (rad/s)"
2.912818200E-2,1.644753367E-1,6.817250848E-1,1.238986492E1
3.154016100E-2,9.972367436E-2,8.100066781E-1,1.238986492E1
3.395214000E-2,3.008509055E-2,9.370665550E-1,1.238742161E1
3.636406700E-2,-4.444041103E-2,1.059239507E0,1.238742161E1
3.877604600E-2,-1.238528341E-1,1.166751742E0,1.238619995E1
4.118802500E-2,-2.044869810E-1,1.252272844E0,1.238619995E1
4.359995200E-2,-2.936732471E-1,1.312137604E0,1.238619995E1
4.601193200E-2,-3.791943192E-1,1.352454662E0,1.238619995E1
4.842391100E-2,-4.708240330E-1,1.387884736E0,1.238619995E1
5.083589000E-2,-5.612320304E-1,1.413541079E0,1.238497829E1
5.324781700E-2,-6.516399980E-1,1.423314929E0,1.238375664E1
5.565979600E-2,-7.408262491E-1,1.406210780E0,1.238009071E1
5.807177500E-2,-8.275690675E-1,1.367115378E0,1.237764740E1
6.048375400E-2,-9.130901098E-1,1.310915828E0,1.237520409E1
6.289568200E-2,-9.937242866E-1,1.249829292E0,1.237031746E1
6.530766100E-2,-1.073136687E0,1.181412458E0,1.236665249E1
6.771964000E-2,-1.146440506E0,1.093447924E0,1.236176491E1
7.013156700E-2,-1.216079116E0,9.883792400E-1,1.235932159E1
7.254354600E-2,-1.279608965E0,8.649845123E-1,1.235565662E1
7.495552500E-2,-1.339473724E0,7.232639194E-1,1.234832573E1
7.736745200E-2,-1.393229842E0,5.693259835E-1,1.234343910E1
7.977943200E-2,-1.438433886E0,4.080576599E-1,1.233977413E1
8.219135900E-2,-1.478750944E0,2.419024557E-1,1.233366489E1
8.460339000E-2,-1.509294152E0,7.208204269E-2,1.233122158E1
8.701531700E-2,-1.533728719E0,-1.062904745E-1,1.232877827E1
8.942729600E-2,-1.544724345E0,-2.895499170E-1,1.232633495E1
9.183927500E-2,-1.547167778E0,-4.728093445E-1,1.232389164E1
9.425120200E-2,-1.543502569E0,-6.572905183E-1,1.232266998E1
9.666318200E-2,-1.526398420E0,-8.429933786E-1,1.232266998E1
9.907516100E-2,-1.498298645E0,-1.027474523E0,1.232389164E1
1.014871400E-1,-1.456759810E0,-1.218064427E0,1.232511330E1
1.038990670E-1,-1.400560260E0,-1.404989004E0,1.232755661E1
1.063110460E-1,-1.334586859E0,-1.577252865E0,1.233122158E1
1.087230250E-1,-1.261283040E0,-1.728747368E0,1.233488750E1
1.111350040E-1,-1.178205490E0,-1.860694170E0,1.233855247E1
1.135468790E-1,-1.090240955E0,-1.963319421E0,1.234343910E1
1.159589110E-1,-9.900590777E-1,-2.034179688E0,1.234832573E1
1.183708900E-1,-8.886555433E-1,-2.085492373E0,1.235199165E1
1.207828170E-1,-7.835868001E-1,-2.123365879E0,1.235443497E1
1.231947960E-1,-6.809614897E-1,-2.151465654E0,1.235687828E1
1.256067750E-1,-5.758927464E-1,-2.161239624E0,1.235932159E1
1.280187540E-1,-4.708240330E-1,-2.158796072E0,1.236054325E1
1.304306820E-1,-3.633118272E-1,-2.145357132E0,1.236298656E1
1.328426610E-1,-2.570213675E-1,-2.109926939E0,1.236176491E1
1.352546400E-1,-1.507308781E-1,-2.048840523E0,1.236054325E1
1.376666190E-1,-4.688387364E-2,-1.971871495E0,1.236054325E1
1.400784940E-1,5.574141070E-2,-1.885128736E0,1.235809994E1
1.424905250E-1,1.547015011E-1,-1.778838277E0,1.235443497E1
1.449025040E-1,2.512181401E-1,-1.653000116E0,1.235199165E1
1.473144320E-1,3.440696001E-1,-1.521053314E0,1.234954739E1
1.497263590E-1,4.308123887E-1,-1.386663079E0,1.234343910E1
1.521383900E-1,5.138899684E-1,-1.248607635E0,1.233977413E1
1.545503170E-1,5.908589363E-1,-1.110552192E0,1.233610916E1
1.569622960E-1,6.617192626E-1,-9.663881063E-1,1.233244324E1
1.593742750E-1,7.264709473E-1,-8.148936033E-1,1.232755661E1
1.617862540E-1,7.826704979E-1,-6.609556675E-1,1.232511330E1
1.641981820E-1,8.327614069E-1,-4.948004782E-1,1.232266998E1
1.666101610E-1,8.730784655E-1,-3.225366175E-1,1.232144833E1
1.690221400E-1,9.048434496E-1,-1.478292793E-1,1.231900501E1
1.714340670E-1,9.292780161E-1,3.665188700E-2,1.231900501E1
1.738460460E-1,9.427170753E-1,2.162461281E-1,1.231778240E1
1.762580250E-1,9.512691498E-1,3.872882724E-1,1.231900501E1
1.786700040E-1,9.476040006E-1,5.461131334E-1,1.232144833E1
1.810819320E-1,9.329432249E-1,6.976075768E-1,1.232266998E1
1.834939110E-1,9.121738076E-1,8.295543790E-1,1.232633495E1
1.859058900E-1,8.840740323E-1,9.492838383E-1,1.232633495E1
1.883178170E-1,8.498656154E-1,1.070235133E0,1.233244324E1
1.907297960E-1,8.095485568E-1,1.174082160E0,1.233366489E1
1.931417750E-1,7.655662894E-1,1.254716277E0,1.233488750E1
1.955537540E-1,7.179188132E-1,1.323133111E0,1.233488750E1
1.979656820E-1,6.653844714E-1,1.370780587E0,1.233610916E1
2.003776610E-1,6.091849208E-1,1.393993378E0,1.233488750E1
2.027896400E-1,5.480984449E-1,1.403767228E0,1.233366489E1
2.052015670E-1,4.857902229E-1,1.406210780E0,1.233488750E1
2.076135460E-1,4.185950756E-1,1.395215154E0,1.233244324E1
2.100255250E-1,3.501782417E-1,1.363450170E0,1.232755661E1
2.124374520E-1,2.817613780E-1,1.306028843E0,1.232389164E1
2.148494320E-1,2.145662606E-1,1.233946800E0,1.231900501E1
2.172614110E-1,1.485928595E-1,1.153312683E0,1.231533909E1
2.196733900E-1,8.628465235E-2,1.053130865E0,1.231167412E1
2.220853170E-1,2.275471389E-2,9.419534802E-1,1.230556583E1
2.244972960E-1,-3.833176568E-2,8.185588121E-1,1.230189991E1
2.269092750E-1,-9.575305134E-2,6.829468012E-1,1.229701328E1
2.293212020E-1,-1.507308781E-1,5.412262082E-1,1.228968334E1
2.317331820E-1,-2.008218020E-1,3.946186602E-1,1.228479576E1
2.341451610E-1,-2.484692484E-1,2.480110973E-1,1.227868748E1
2.365571400E-1,-2.900080681E-1,9.529490769E-2,1.227502251E1
2.389690150E-1,-3.291034102E-1,-5.253437161E-2,1.227013493E1
2.413810460E-1,-3.620901108E-1,-2.003636509E-1,1.226402664E1
2.437930250E-1,-3.901898861E-1,-3.445277214E-1,1.225914001E1
2.462050040E-1,-4.158461988E-1,-4.850266278E-1,1.225669670E1
2.486169320E-1,-4.366155863E-1,-6.145299673E-1,1.225058746E1
2.510289110E-1,-4.537198246E-1,-7.391464114E-1,1.224692249E1
2.534408900E-1,-4.647153914E-1,-8.503237963E-1,1.224570084E1
2.558528170E-1,-4.720457494E-1,-9.578359723E-1,1.224447918E1
2.582647960E-1,-4.769326746E-1,-1.055574298E0,1.224325752E1
2.606767750E-1,-4.757109582E-1,-1.137430191E0,1.224203587E1
2.630887540E-1,-4.708240330E-1,-1.204625368E0,1.224081421E1
2.655006820E-1,-4.634936452E-1,-1.265711784E0,1.223959255E1
2.679126610E-1,-4.549415410E-1,-1.324354887E0,1.223714828E1
2.703246400E-1,-4.439459741E-1,-1.392771721E0,1.223592663E1
2.727365670E-1,-4.280634820E-1,-1.462410331E0,1.223837090E1
2.751485460E-1,-4.085158110E-1,-1.527161956E0,1.223959255E1
2.775605250E-1,-3.853029609E-1,-1.584583282E0,1.223959255E1
2.799724520E-1,-3.596466482E-1,-1.626121998E0,1.224081421E1
2.823844320E-1,-3.315468729E-1,-1.643226266E0,1.224203587E1
2.847964110E-1,-3.010036349E-1,-1.642004490E0,1.224447918E1
2.872083900E-1,-2.680169344E-1,-1.624900341E0,1.224447918E1
2.896203170E-1,-2.325867712E-1,-1.602909207E0,1.224325752E1
2.920322960E-1,-2.008218020E-1,-1.571144223E0,1.224447918E1
2.944442750E-1,-1.690568328E-1,-1.528383732E0,1.224570084E1
2.968562020E-1,-1.385135949E-1,-1.475849271E0,1.224325752E1
2.992681820E-1,-1.091920808E-1,-1.397658587E0,1.223959255E1
3.016801610E-1,-7.987056673E-2,-1.287702918E0,1.223837090E1
3.040921400E-1,-5.299251899E-2,-1.156977892E0,1.223348331E1
3.065040670E-1,-3.344484791E-2,-1.015257239E0,1.223226166E1
3.089160460E-1,-1.878409274E-2,-8.613193631E-1,1.222859669E1
3.113280250E-1,-1.145371422E-2,-7.024945021E-1,1.222493172E1
3.137400040E-1,-5.345067009E-3,-5.400044918E-1,1.222126579E1
3.161519320E-1,-7.788525894E-3,-3.824013472E-1,1.221882248E1
3.185639110E-1,-1.389717404E-2,-2.272416949E-1,1.221760082E1
3.209758900E-1,-2.855792828E-2,-7.574722916E-2,1.221515751E1
3.233878170E-1,-4.932733253E-2,6.841685623E-2,1.221760082E1
3.257997960E-1,-7.376192510E-2,2.101374865E-1,1.221760082E1
3.282117750E-1,-1.030834317E-1,3.494146466E-1,1.221760082E1
3.306237020E-1,-1.385135949E-1,4.667007029E-1,1.221760082E1
3.330356820E-1,-1.763872057E-1,5.668824911E-1,1.222004414E1
3.354476610E-1,-2.191477418E-1,6.658425927E-1,1.222126579E1
3.378596400E-1,-2.606865466E-1,7.599157691E-1,1.222371006E1
3.402715670E-1,-3.071122766E-1,8.491020203E-1,1.222371006E1
3.426835460E-1,-3.559814394E-1,9.260709882E-1,1.222615337E1
3.450955250E-1,-4.060723484E-1,9.981530309E-1,1.222737503E1
3.475074520E-1,-4.549415410E-1,1.069013357E0,1.222737503E1
3.499194320E-1,-5.074759126E-1,1.126434684E0,1.222859669E1
3.523314110E-1,-5.612320304E-1,1.175303817E0,1.222859669E1
3.547433900E-1,-6.186532974E-1,1.204625368E0,1.222615337E1
3.571553170E-1,-6.748528481E-1,1.222951293E0,1.222615337E1
3.595672960E-1,-7.359393239E-1,1.235168576E0,1.222493172E1
3.619792750E-1,-7.933606505E-1,1.225394726E0,1.222248840E1
3.643912020E-1,-8.507819176E-1,1.183855891E0,1.221882248E1
3.668031820E-1,-8.996511102E-1,1.126434684E0,1.221393585E1
3.692151610E-1,-9.448550940E-1,1.061682940E0,1.221271420E1
3.716271400E-1,-9.851721525E-1,9.761618972E-1,1.220904922E1
3.740390670E-1,-1.023045778E0,8.772017956E-1,1.220416164E1
3.764510460E-1,-1.058475971E0,7.696896195E-1,1.220049667E1
3.788630250E-1,-1.089019179E0,6.548470259E-1,1.219683170E1
3.812750040E-1,-1.113453746E0,5.290089250E-1,1.219194508E1
3.836869320E-1,-1.136666656E0,3.970620930E-1,1.218827915E1
3.860989110E-1,-1.152549148E0,2.504545450E-1,1.218217087E1
3.885108900E-1,-1.162322998E0,9.285144508E-2,1.217972755E1
3.909228170E-1,-1.162322998E0,-7.208204269E-2,1.217850590E1
3.933347960E-1,-1.158657789E0,-2.357937992E-1,1.217484093E1
3.957467750E-1,-1.151327372E0,-3.982838392E-1,1.217361832E1
3.981587020E-1,-1.135444880E0,-5.607738495E-1,1.216995335E1
4.005706820E-1,-1.109788537E0,-7.269290686E-1,1.216995335E1
4.029826610E-1,-1.075580120E0,-8.906408548E-1,1.216873169E1
4.053946400E-1,-1.032819629E0,-1.050687432E0,1.216995335E1
4.078065670E-1,-9.815070033E-1,-1.205847025E0,1.217117500E1
4.102185460E-1,-9.216422439E-1,-1.357341528E0,1.217361832E1
4.126305250E-1,-8.507819176E-1,-1.505170822E0,1.217728424E1
4.150424520E-1,-7.725912333E-1,-1.645669699E0,1.217972755E1
4.174544320E-1,-6.834049821E-1,-1.764177442E0,1.218461418E1
4.198664110E-1,-5.881100893E-1,-1.864359260E0,1.218827915E1
4.222783900E-1,-4.915934205E-1,-1.936441302E0,1.219438839E1
4.246903170E-1,-3.926333487E-1,-1.988975763E0,1.219805336E1
4.271022960E-1,-2.924515009E-1,-2.029292822E0,1.220171833E1
4.295142750E-1,-1.934914142E-1,-2.054949045E0,1.220538330E1
4.319262020E-1,-9.453132749E-2,-2.056170940E0,1.220782757E1
4.343381820E-1,3.207040019E-3,-2.042731762E0,1.221027088E1
4.367501610E-1,1.033888608E-1,-2.025627613E0,1.221271420E1
4.391621400E-1,1.986837685E-1,-1.999971271E0,1.221271420E1
4.415740670E-1,2.952004075E-1,-1.962097645E0,1.221271420E1
4.439860460E-1,3.868301213E-1,-1.902232885E0,1.221515751E1
4.463980250E-1,4.809032977E-1,-1.814268351E0,1.221393585E1
4.488099520E-1,5.700895786E-1,-1.703091025E0,1.221271420E1
4.512219320E-1,6.519454122E-1,-1.582139730E0,1.221271420E1
4.536339110E-1,7.252492309E-1,-1.448971272E0,1.220904922E1
4.560458380E-1,7.912226319E-1,-1.308472395E0,1.220660591E1
4.584578170E-1,8.547525406E-1,-1.164308310E0,1.220416164E1
4.608697960E-1,9.121738076E-1,-1.022587657E0,1.220171833E1
4.632817750E-1,9.622647166E-1,-8.881973624E-1,1.219805336E1
4.656937020E-1,1.006247044E0,-7.562506199E-1,1.219683170E1
4.681056820E-1,1.044120669E0,-6.267472506E-1,1.219561005E1
4.705176610E-1,1.073442101E0,-4.911352694E-1,1.219316673E1
4.729295880E-1,1.096655011E0,-3.408625424E-1,1.219316673E1
4.753415670E-1,1.111315727E0,-1.673769504E-1,1.219072342E1
4.777535460E-1,1.117424369E0,3.054323979E-2,1.219194508E1
4.801655250E-1,1.113759160E0,2.296851575E-1,1.218950081E1
4.825774000E-1,1.103985429E0,3.982838392E-1,1.219072342E1
4.849894320E-1,1.084437728E0,5.473348498E-1,1.219072342E1
4.874014110E-1,1.055116177E0,6.976075768E-1,1.219072342E1
4.898133900E-1,1.018464327E0,8.368847370E-1,1.219072342E1
4.922253170E-1,9.720385671E-1,9.602794051E-1,1.219194508E1
4.946372960E-1,9.170607328E-1,1.087339282E0,1.219194508E1
4.970492750E-1,8.535308242E-1,1.218064427E0,1.219072342E1
4.994612020E-1,7.826704979E-1,1.334128737E0,1.219072342E1
5.018731820E-1,7.057015300E-1,1.436753988E0,1.218827915E1
5.042851610E-1,6.238456368E-1,1.521053314E0,1.218705750E1
5.066971400E-1,5.383245945E-1,1.572365999E0,1.218705750E1
5.091090670E-1,4.479165971E-1,1.588248372E0,1.218461418E1
5.115210460E-1,3.550651670E-1,1.573587656E0,1.217972755E1
5.139330250E-1,2.609919906E-1,1.540601015E0,1.217484093E1
5.163449520E-1,1.656970680E-1,1.495396972E0,1.217239666E1
5.187569320E-1,6.918043643E-2,1.440419197E0,1.216751003E1
5.211689110E-1,-2.489273995E-2,1.380554438E0,1.215895844E1
5.235808380E-1,-1.189659163E-1,1.307250619E0,1.215284920E1
5.259928170E-1,-2.093739063E-1,1.216842651E0,1.214551926E1
5.284047960E-1,-2.973384261E-1,1.111773849E0,1.213696671E1
5.308167750E-1,-3.804160357E-1,9.920443892E-1,1.212963676E1
5.332287020E-1,-4.586067200E-1,8.662062287E-1,1.212108421E1
5.356406820E-1,-5.331322551E-1,7.330377102E-1,1.211375427E1
5.380526610E-1,-6.076577306E-1,5.998691916E-1,1.210764503E1
5.404645880E-1,-6.760746241E-1,4.605920315E-1,1.210031509E1
5.428765670E-1,-7.383828163E-1,3.262017965E-1,1.209298420E1
5.452885460E-1,-7.933606505E-1,1.893680841E-1,1.208809757E1
5.477005250E-1,-8.471167088E-1,4.764745384E-2,1.208198929E1
5.501124520E-1,-8.910989761E-1,-1.014035568E-1,1.207588005E1
5.525244320E-1,-9.289726019E-1,-2.528980076E-1,1.207343674E1
5.549364110E-1,-9.607375860E-1,-4.129445851E-1,1.207099342E1
5.573483380E-1,-9.863939285E-1,-5.717694163E-1,1.206855011E1
5.597603170E-1,-1.001054645E0,-7.293725610E-1,1.206732845E1
5.621722960E-1,-1.014493704E0,-8.857539296E-1,1.206855011E1
5.645842750E-1,-1.021824002E0,-1.034804940E0,1.206732845E1
5.669962020E-1,-1.020602345E0,-1.178969026E0,1.206855011E1
5.694081820E-1,-1.015715361E0,-1.324354887E0,1.206732845E1
5.718201610E-1,-9.986112118E-1,-1.461188555E0,1.207099342E1
5.742320880E-1,-9.741765857E-1,-1.587026715E0,1.207588005E1
5.766440670E-1,-9.448550940E-1,-1.692095399E0,1.207832432E1
5.790560460E-1,-9.082031846E-1,-1.780059934E0,1.208198929E1
5.814680250E-1,-8.703296185E-1,-1.860694170E0,1.208687592E1
5.838799520E-1,-8.275690675E-1,-1.925445795E0,1.209054089E1
5.862919320E-1,-7.786998749E-1,-1.958432436E0,1.209298420E1
5.887039110E-1,-7.261655331E-1,-1.959654212E0,1.209298420E1
5.911158380E-1,-6.724094152E-1,-1.943771720E0,1.209542847E1
5.935278170E-1,-6.162098646E-1,-1.912006736E0,1.209665012E1
5.959397960E-1,-5.624537468E-1,-1.881463528E0,1.209542847E1
5.983517750E-1,-5.050324798E-1,-1.839924693E0,1.209420681E1
6.007637020E-1,-4.488328993E-1,-1.771507859E0,1.209420681E1
6.031756820E-1,-3.914116025E-1,-1.684765100E0,1.209420681E1
6.055876610E-1,-3.376555145E-1,-1.591913581E0,1.209176254E1
6.079995880E-1,-2.814559340E-1,-1.495396972E0,1.208809757E1
6.104115670E-1,-2.301433086E-1,-1.385441303E0,1.208443260E1
6.128235460E-1,-1.824958473E-1,-1.262046576E0,1.208198929E1
6.152355250E-1,-1.385135949E-1,-1.131321549E0,1.207954597E1
6.176474520E-1,-9.819651395E-2,-9.908226728E-1,1.207710171E1
6.200594320E-1,-6.154462695E-2,-8.491020203E-1,1.207343674E1
6.224714110E-1,-2.855792828E-2,-7.024945021E-1,1.207221508E1
6.248833380E-1,-1.679878100E-3,-5.534434915E-1,1.206855011E1
6.272953170E-1,2.153298259E-2,-4.056142271E-1,1.206732845E1
6.297072960E-1,3.863719851E-2,-2.553414702E-1,1.206366348E1
6.321192230E-1,5.329795182E-2,-1.001818255E-1,1.206244183E1
6.345312020E-1,6.185005978E-2,5.253437161E-2,1.205877590E1
6.369431820E-1,6.185005978E-2,2.028071135E-1,1.205999756E1
6.393551610E-1,5.574141070E-2,3.518581092E-1,1.205755424E1
6.417670880E-1,4.474584386E-2,4.948004782E-1,1.205755424E1
6.441790670E-1,2.764163166E-2,6.316341758E-1,1.205999756E1
6.465910460E-1,9.315688163E-3,7.709113359E-1,1.205877590E1
6.490029730E-1,-1.389717404E-2,9.028581381E-1,1.205877590E1
6.514149520E-1,-4.566214234E-2,1.020144224E0,1.205877590E1
6.538269320E-1,-8.353576064E-2,1.126434684E0,1.205999756E1
6.562389110E-1,-1.250745654E-1,1.220507860E0,1.205877590E1
6.586508380E-1,-1.641699076E-1,1.292589903E0,1.206121922E1
6.610628170E-1,-2.069304436E-1,1.341459036E0,1.205999756E1
6.634747960E-1,-2.509126961E-1,1.374445796E0,1.205877590E1
6.658867230E-1,-2.985601723E-1,1.392771721E0,1.205999756E1
6.682987020E-1,-3.462076187E-1,1.402545571E0,1.205999756E1
6.707106820E-1,-3.938550651E-1,1.397658587E0,1.205755424E1
6.731226090E-1,-4.427242577E-1,1.374445796E0,1.205633259E1
6.755345880E-1,-4.879282415E-1,1.323133111E0,1.205144596E1
6.779465670E-1,-5.306887627E-1,1.246164203E0,1.204900265E1
6.803585460E-1,-5.710058808E-1,1.152091026E0,1.204411507E1
6.827704730E-1,-6.088794470E-1,1.053130865E0,1.203922844E1
6.851824520E-1,-6.430879235E-1,9.566142559E-1,1.203800678E1
6.875944320E-1,-6.736311316E-1,8.527672291E-1,1.203312016E1
6.900063590E-1,-7.005091906E-1,7.269290686E-1,1.202945423E1
6.924183380E-1,-7.237220407E-1,5.705476999E-1,1.202334595E1
6.948303170E-1,-7.420479655E-1,3.958403766E-1,1.201968098E1
6.972422960E-1,-7.530435324E-1,2.211330533E-1,1.201601601E1
6.996542230E-1,-7.591522336E-1,5.375609919E-2,1.200990677E1
7.020662020E-1,-7.591522336E-1,-1.123991162E-1,1.200746346E1
7.044781820E-1,-7.481566668E-1,-2.871064544E-1,1.200624180E1
7.068901090E-1,-7.347176075E-1,-4.715875983E-1,1.200502014E1
7.093020880E-1,-7.115047574E-1,-6.548470259E-1,1.200379848E1
7.117140670E-1,-6.821832657E-1,-8.356630206E-1,1.200379848E1
7.141260460E-1,-6.430879235E-1,-1.005483389E0,1.200502014E1
7.165379730E-1,-5.966621637E-1,-1.164308310E0,1.200624180E1
7.189499520E-1,-5.429060459E-1,-1.314581037E0,1.200868511E1
7.213619320E-1,-4.842630625E-1,-1.455079913E0,1.201235008E1
7.237738590E-1,-4.219548404E-1,-1.585804939E0,1.201723766E1
7.261858380E-1,-3.547597229E-1,-1.700647593E0,1.202090263E1
7.285978170E-1,-2.826776803E-1,-1.793498993E0,1.202578926E1
7.310097960E-1,-2.069304436E-1,-1.868024468E0,1.203067684E1
7.334217230E-1,-1.275180280E-1,-1.930332661E0,1.203434181E1
7.358337020E-1,-4.077522457E-2,-1.981645346E0,1.203800678E1
7.382456820E-1,4.474584386E-2,-2.023184061E0,1.204045010E1
7.406576090E-1,1.339320987E-1,-2.051283836E0,1.204289341E1
7.430695880E-1,2.182314396E-1,-2.062279463E0,1.204655933E1
7.454815670E-1,3.074176908E-1,-2.059836149E0,1.204778099E1
7.478935460E-1,3.941605091E-1,-2.035401344E0,1.204778099E1
7.503054730E-1,4.772381186E-1,-1.991419196E0,1.204533672E1
7.527174520E-1,5.566505194E-1,-1.929111004E0,1.204533672E1
7.551294320E-1,6.336194873E-1,-1.839924693E0,1.204289341E1
7.575413590E-1,7.032580972E-1,-1.723860383E0,1.204045010E1
7.599533380E-1,7.667880058E-1,-1.591913581E0,1.203800678E1
7.623653170E-1,8.242093325E-1,-1.453858137E0,1.203434181E1
7.647772960E-1,8.804088831E-1,-1.307250619E0,1.203067684E1
7.671892230E-1,9.268345833E-1,-1.150869250E0,1.202578926E1
7.696012020E-1,9.671516418E-1,-9.908226728E-1,1.201968098E1
7.720131820E-1,1.000138402E0,-8.185588121E-1,1.201601601E1
7.744251090E-1,1.023351192E0,-6.352993846E-1,1.201112843E1
7.768370880E-1,1.033125043E0,-4.447095692E-1,1.200746346E1
7.792490670E-1,1.034346819E0,-2.431241870E-1,1.200379848E1
7.816610460E-1,1.028238177E0,-4.642572254E-2,1.200135517E1
7.840729730E-1,1.013577342E0,1.209512278E-1,1.200013351E1
7.864849520E-1,9.891427755E-1,2.602283955E-1,1.199891186E1
7.888969320E-1,9.561560750E-1,3.958403766E-1,1.200013351E1
7.913088590E-1,9.158390164E-1,5.375609994E-1,1.200013351E1
7.937208380E-1,8.718567491E-1,6.878337264E-1,1.200013351E1
7.961328170E-1,8.168789148E-1,8.381064534E-1,1.200013351E1
7.985446920E-1,7.570141554E-1,9.896009564E-1,1.200013351E1
8.009567230E-1,6.885973215E-1,1.125212908E0,1.200013351E1
8.033687020E-1,6.104066372E-1,1.240055561E0,1.200257683E1
8.057806820E-1,5.273290277E-1,1.339015603E0,1.199891186E1
8.081926090E-1,4.381427765E-1,1.424536705E0,1.199891186E1
8.106045880E-1,3.452913165E-1,1.494175196E0,1.199768925E1
8.130165670E-1,2.512181401E-1,1.554039955E0,1.199524593E1
8.154284940E-1,1.534797698E-1,1.609017849E0,1.199280262E1
8.178404730E-1,5.085449293E-2,1.650556684E0,1.198913765E1
8.202524520E-1,-5.543597788E-2,1.676212907E0,1.198547268E1
8.226644320E-1,-1.629481763E-1,1.682321548E0,1.198058510E1
8.250763590E-1,-2.716821134E-1,1.659108758E0,1.197447681E1
8.274883380E-1,-3.853029609E-1,1.607796073E0,1.196714687E1
8.299003170E-1,-4.977020919E-1,1.525940180E0,1.195859432E1
8.323122440E-1,-6.076577306E-1,1.424536705E0,1.195126438E1
8.347242230E-1,-7.139481902E-1,1.317024469E0,1.194393349E1
8.371362020E-1,-8.177952170E-1,1.197294950E0,1.193538189E1
8.395481290E-1,-9.118683934E-1,1.069013357E0,1.192560768E1
8.419601090E-1,-9.961677194E-1,9.272927642E-1,1.192072105E1
8.443720880E-1,-1.075580120E0,7.721330523E-1,1.191094685E1
8.467840670E-1,-1.142775297E0,5.986474752E-1,1.190606022E1
8.491959940E-1,-1.205083489E0,4.080576599E-1,1.190117264E1
8.516079730E-1,-1.263726473E0,2.101374865E-1,1.189628601E1
8.540199520E-1,-1.313817382E0,1.954767294E-2,1.189017773E1
8.564318790E-1,-1.352912784E0,-1.661552191E-1,1.188773441E1
8.588438590E-1,-1.383455992E0,-3.506363928E-1,1.188284683E1
8.612558380E-1,-1.406668901E0,-5.351175666E-1,1.188162518E1
8.636678170E-1,-1.421329618E0,-7.232639194E-1,1.188162518E1
8.660797440E-1,-1.421329618E0,-9.175189137E-1,1.188406849E1
8.684917230E-1,-1.413999200E0,-1.112995625E0,1.188529015E1
8.709037020E-1,-1.395673275E0,-1.302363753E0,1.188895607E1
8.733156290E-1,-1.374903917E0,-1.484401464E0,1.189262104E1
8.757276090E-1,-1.341917157E0,-1.660330415E0,1.189506435E1
8.781395880E-1,-1.297934890E0,-1.820376992E0,1.189872932E1
8.805515670E-1,-1.238070250E0,-1.948658705E0,1.190483856E1
8.829634940E-1,-1.174540281E0,-2.045175314E0,1.190972519E1
8.853754730E-1,-1.103679895E0,-2.112370491E0,1.191461182E1
8.877874520E-1,-1.030376196E0,-2.149022341E0,1.191827774E1
8.901993790E-1,-9.582940936E-1,-2.161239624E0,1.192316437E1
8.926113590E-1,-8.849903345E-1,-2.166126490E0,1.192560768E1
8.950233380E-1,-8.055779338E-1,-2.173456907E0,1.192560768E1
8.974352650E-1,-7.249437571E-1,-2.169791698E0,1.192805099E1
8.998472440E-1,-6.394227147E-1,-2.127031088E0,1.192805099E1
9.022592230E-1,-5.563451052E-1,-2.054949045E0,1.192682934E1
9.046712020E-1,-4.732674956E-1,-1.966984630E0,1.192682934E1
9.070831290E-1,-3.950767815E-1,-1.868024468E0,1.192560768E1
9.094951090E-1,-3.168860972E-1,-1.758068800E0,1.192316437E1
9.119070880E-1,-2.435823381E-1,-1.639561057E0,1.192072105E1
9.143190150E-1,-1.727220118E-1,-1.517388105E0,1.191705513E1
9.167309940E-1,-1.055268943E-1,-1.393993378E0,1.191216850E1
9.191429730E-1,-3.955349326E-2,-1.262046576E0,1.190972519E1
9.215549520E-1,2.397644334E-2,-1.120326042E0,1.190606022E1
9.239668790E-1,8.017600328E-2,-9.761618972E-1,1.189995098E1
9.263788590E-1,1.363755614E-1,-8.271108866E-1,1.189506435E1
9.287908380E-1,1.864664704E-1,-6.817250848E-1,1.189262104E1
9.312027650E-1,2.316704690E-1,-5.302306414E-1,1.188773441E1
9.336147440E-1,2.695440948E-1,-3.799578846E-1,1.188284683E1
9.360267230E-1,3.013090491E-1,-2.272416949E-1,1.187918186E1
9.384386500E-1,3.257436454E-1,-7.086031139E-2,1.187918186E1
9.408506290E-1,3.440696001E-1,8.918625861E-2,1.188040352E1
9.432626090E-1,3.575085998E-1,2.492328286E-1,1.187918186E1
9.456745880E-1,3.648389876E-1,4.019490182E-1,1.187918186E1
9.480865150E-1,3.660607338E-1,5.485565662E-1,1.188040352E1
9.504984940E-1,3.587303460E-1,6.829468012E-1,1.188162518E1
9.529104730E-1,3.477347791E-1,8.100066781E-1,1.188162518E1
9.553224000E-1,3.318522871E-1,9.309579134E-1,1.188284683E1
9.577343790E-1,3.135263622E-1,1.045800447E0,1.188651276E1
9.601463590E-1,2.903134823E-1,1.143538833E0,1.188651276E1
9.625582860E-1,2.622137070E-1,1.224173069E0,1.188651276E1
9.649702650E-1,2.304487377E-1,1.296255112E0,1.188895607E1
9.673822440E-1,1.950185746E-1,1.365893602E0,1.188895607E1
9.697942230E-1,1.547015011E-1,1.424536705E0,1.189017773E1
9.722061500E-1,1.107192412E-1,1.451414704E0,1.189017773E1
9.746181290E-1,6.551524997E-2,1.446527839E0,1.188895607E1
9.770301090E-1,2.153298259E-2,1.430645347E0,1.188773441E1
9.794420880E-1,-2.611446939E-2,1.398880363E0,1.188773441E1
9.818540150E-1,-7.131846249E-2,1.340237379E0,1.188406849E1
9.842659940E-1,-1.140789986E-1,1.263268352E0,1.188040352E1
9.866779730E-1,-1.543960720E-1,1.174082160E0,1.187673855E1
9.890899000E-1,-1.934914142E-1,1.071456790E0,1.187429523E1
9.915018790E-1,-2.313650399E-1,9.566142559E-1,1.187063026E1
9.939138590E-1,-2.655734718E-1,8.283326626E-1,1.186696434E1
9.963257860E-1,-2.985601723E-1,6.939423680E-1,1.186329937E1
9.987377650E-1,-3.254382014E-1,5.546652079E-1,1.185841274E1
1.001149744E0,-3.498727977E-1,4.068359435E-1,1.185352516E1
1.003561723E0,-3.718639314E-1,2.516762912E-1,1.184986019E1
1.005973650E0,-3.877464235E-1,8.918625861E-2,1.184741688E1
1.008385629E0,-3.987419903E-1,-7.208204269E-2,1.184253025E1
1.010797609E0,-4.036289155E-1,-2.357937992E-1,1.184008694E1
1.013209536E0,-4.036289155E-1,-3.946186602E-1,1.183764267E1
1.015621515E0,-3.987419903E-1,-5.461131334E-1,1.183519936E1
1.018033494E0,-3.877464235E-1,-6.927206516E-1,1.183397770E1
1.020445421E0,-3.718639314E-1,-8.295543790E-1,1.183519936E1
1.022857400E0,-3.486510813E-1,-9.566142559E-1,1.183642101E1
1.025269379E0,-3.229947388E-1,-1.081230640E0,1.183886528E1
1.027681359E0,-2.912297845E-1,-1.200960159E0,1.184008694E1
1.030093286E0,-2.570213675E-1,-1.313359261E0,1.184130859E1
1.032505265E0,-2.215912044E-1,-1.418428063E0,1.184375191E1
1.034917244E0,-1.788306683E-1,-1.518609881E0,1.184619522E1
1.037329223E0,-1.348484010E-1,-1.615126491E0,1.185108185E1
1.039741150E0,-8.842267841E-2,-1.705534458E0,1.185230350E1
1.042153129E0,-3.955349326E-2,-1.784946918E0,1.185596943E1
1.044565109E0,1.420260593E-2,-1.842368126E0,1.185596943E1
1.046977036E0,7.284562290E-2,-1.877798319E0,1.185596943E1
1.049389015E0,1.327103674E-1,-1.902232885E0,1.185841274E1
1.051800994E0,1.913533956E-1,-1.919337153E0,1.185963440E1
1.054212921E0,2.499964088E-1,-1.915671945E0,1.186085606E1
1.056624900E0,3.037525117E-1,-1.892459035E0,1.186085606E1
1.059036879E0,3.587303460E-1,-1.855807185E0,1.186085606E1
1.061448859E0,4.100429714E-1,-1.800829411E0,1.185841274E1
1.063860786E0,4.613556266E-1,-1.714086533E0,1.185474777E1
1.066272765E0,5.065596104E-1,-1.604130864E0,1.184986019E1
1.068684692E0,5.456549525E-1,-1.475849271E0,1.184497356E1
1.071096671E0,5.798633695E-1,-1.339015603E0,1.184253025E1
1.073508650E0,6.079631448E-1,-1.207068801E0,1.183886528E1
1.075920629E0,6.336194873E-1,-1.071456790E0,1.183397770E1
1.078332557E0,6.543889046E-1,-9.187406301E-1,1.183031273E1
1.080744536E0,6.653844714E-1,-7.428115606E-1,1.182420444E1
1.083156515E0,6.727148294E-1,-5.546652079E-1,1.181809521E1
1.085568494E0,6.702713966E-1,-3.714057803E-1,1.181198692E1
1.087980421E0,6.617192626E-1,-1.930332631E-1,1.180710030E1
1.090392400E0,6.446150541E-1,-2.199113183E-2,1.180343437E1
1.092804379E0,6.201804876E-1,1.453858167E-1,1.180099106E1
1.095216307E0,5.835285783E-1,3.066541255E-1,1.179976940E1
1.097628286E0,5.371028781E-1,4.642572403E-1,1.179854774E1
1.100040265E0,4.809032977E-1,6.145299673E-1,1.179976940E1
1.102452192E0,4.185950756E-1,7.586940527E-1,1.179854774E1
1.104864171E0,3.501782417E-1,9.028581381E-1,1.179854774E1
1.107276150E0,2.768744528E-1,1.042135358E0,1.179976940E1
1.109688129E0,1.974620372E-1,1.174082160E0,1.179854774E1
1.112100057E0,1.156061590E-1,1.292589903E0,1.179732609E1
1.114512036E0,3.252854943E-2,1.396436930E0,1.179610443E1
1.116924015E0,-5.543597788E-2,1.475849271E0,1.179610443E1
1.119335994E0,-1.458439678E-1,1.524718523E0,1.179488277E1
1.121747921E0,-2.435823381E-1,1.556483507E0,1.179366112E1
1.124159900E0,-3.413206935E-1,1.578474641E0,1.179366112E1
1.126571879E0,-4.415025115E-1,1.587026715E0,1.179243946E1
1.128983807E0,-5.380191803E-1,1.568700790E0,1.178755188E1
1.131395786E0,-6.333140731E-1,1.524718523E0,1.178510857E1
1.133807765E0,-7.249437571E-1,1.464853764E0,1.178022194E1
1.136219692E0,-8.141300082E-1,1.395215154E0,1.177777863E1
1.138631671E0,-8.984293938E-1,1.313359261E0,1.177411366E1
1.141043650E0,-9.839504361E-1,1.218064427E0,1.176800442E1
1.143455577E0,-1.060919404E0,1.114217401E0,1.176311779E1
1.145867557E0,-1.139110088E0,1.004261732E0,1.175700855E1
1.148279536E0,-1.212413907E0,8.796452880E-1,1.175212193E1
1.150691515E0,-1.277165532E0,7.305942774E-1,1.174601364E1
1.153103390E0,-1.332143426E0,5.571087003E-1,1.174234867E1
1.155515421E0,-1.383455992E0,3.775144219E-1,1.173623943E1
1.157927400E0,-1.424994826E0,1.930332631E-1,1.173135281E1
1.160339327E0,-1.461646676E0,1.099556591E-2,1.172646618E1
1.162751307E0,-1.489746451E0,-1.710421443E-1,1.172157860E1
1.165163286E0,-1.508072376E0,-3.579667509E-1,1.172157860E1
1.167575265E0,-1.517846227E0,-5.534434915E-1,1.171791363E1
1.169987192E0,-1.514181018E0,-7.574723363E-1,1.171791363E1
1.172399171E0,-1.497076869E0,-9.541707635E-1,1.171913528E1
1.174811150E0,-1.470198750E0,-1.136208534E0,1.172157860E1
1.177223077E0,-1.432325244E0,-1.295033336E0,1.172524357E1
1.179635057E0,-1.385899425E0,-1.435532212E0,1.172890949E1
1.182047036E0,-1.332143426E0,-1.572365999E0,1.173623943E1
1.184459015E0,-1.267391682E0,-1.703091025E0,1.173868275E1
1.186870942E0,-1.197753072E0,-1.819155335E0,1.174234867E1
1.189282921E0,-1.123227596E0,-1.924224019E0,1.174845695E1
1.191694900E0,-1.042593479E0,-2.012188673E0,1.175334358E1
1.194106827E0,-9.558506608E-1,-2.079383612E0,1.175578690E1
1.196518807E0,-8.678861260E-1,-2.124587774E0,1.175823116E1
1.198930786E0,-7.750346661E-1,-2.147800446E0,1.175945282E1
1.201342765E0,-6.797397733E-1,-2.152687550E0,1.176311779E1
1.203754692E0,-5.868883133E-1,-2.139248371E0,1.176433945E1
1.206166671E0,-4.903717041E-1,-2.106261730E0,1.176433945E1
1.208578650E0,-3.938550651E-1,-2.052505732E0,1.176556110E1
1.210990577E0,-2.973384261E-1,-1.991419196E0,1.176556110E1
1.213402557E0,-2.032652497E-1,-1.920558810E0,1.176311779E1
1.215814536E0,-1.091920808E-1,-1.843589902E0,1.176067448E1
1.218226463E0,-2.000582218E-2,-1.761734009E0,1.175700855E1
1.220638442E0,6.795870513E-2,-1.666439176E0,1.175456524E1
1.223050421E0,1.547015011E-1,-1.560148597E0,1.175212193E1
1.225462400E0,2.377791107E-1,-1.441640854E0,1.174601364E1
1.227874327E0,3.184132576E-1,-1.312137604E0,1.174234867E1
1.230286307E0,3.978256881E-1,-1.172860384E0,1.173623943E1
1.232698286E0,4.711294472E-1,-1.025031090E0,1.173135281E1
1.235110213E0,5.358811021E-1,-8.698714375E-1,1.172646618E1
1.237522192E0,5.945241451E-1,-7.098248601E-1,1.172157860E1
1.239934171E0,6.458367705E-1,-5.400044918E-1,1.171913528E1
1.242346098E0,6.849321127E-1,-3.689623177E-1,1.171669197E1
1.244758077E0,7.179188132E-1,-1.905898154E-1,1.171424866E1
1.247170057E0,7.411317229E-1,-1.954767294E-2,1.171547031E1
1.249582036E0,7.582359314E-1,1.478292793E-1,1.171302700E1
1.251993963E0,7.692314982E-1,3.078758419E-1,1.171302700E1
1.254405942E0,7.716749310E-1,4.569268525E-1,1.171302700E1
1.256817921E0,7.667880058E-1,6.010909677E-1,1.171547031E1
1.259229848E0,7.582359314E-1,7.305942774E-1,1.171669197E1
1.261641827E0,7.423534393E-1,8.515455127E-1,1.171791363E1
1.264053807E0,7.215840220E-1,9.822705388E-1,1.172035694E1
1.266465734E0,6.910407543E-1,1.110552192E0,1.172280025E1
1.268877713E0,6.580541134E-1,1.227838159E0,1.172524357E1
1.271289692E0,6.177369952E-1,1.330463529E0,1.172524357E1
1.273701671E0,5.737547278E-1,1.409875870E0,1.172768784E1
1.276113598E0,5.224421024E-1,1.459966779E0,1.172768784E1
1.278525577E0,4.699077308E-1,1.490510106E0,1.172768784E1
1.280937557E0,4.137081802E-1,1.503949046E0,1.172646618E1
1.283349484E0,3.562868834E-1,1.500283957E0,1.172768784E1
1.285761463E0,2.964221239E-1,1.478292823E0,1.172524357E1
1.288173442E0,2.365573794E-1,1.430645347E0,1.172402191E1
1.290585421E0,1.754709035E-1,1.363450170E0,1.172035694E1
1.292997348E0,1.131627038E-1,1.282816052E0,1.171547031E1
1.295409327E0,5.207622424E-2,1.192408085E0,1.171180534E1
1.297821307E0,-7.788525894E-3,1.091004491E0,1.170447445E1
1.300233234E0,-6.398808211E-2,9.615011811E-1,1.169714451E1
1.302645213E0,-1.201876476E-1,8.026763201E-1,1.169347858E1
1.305057192E0,-1.727220118E-1,6.340776682E-1,1.168737030E1
1.307469171E0,-2.215912044E-1,4.715875983E-1,1.168004036E1
1.309881098E0,-2.667951882E-1,3.139844835E-1,1.167148781E1
1.312293077E0,-3.058905303E-1,1.624900252E-1,1.166415787E1
1.314705057E0,-3.413206935E-1,1.954767294E-2,1.165560532E1
1.317116984E0,-3.718639314E-1,-1.221729591E-1,1.164827538E1
1.319528963E0,-3.914116025E-1,-2.663370371E-1,1.164460945E1
1.321940942E0,-4.085158110E-1,-4.202749729E-1,1.163972282E1
1.324352869E0,-4.146244824E-1,-5.766563416E-1,1.163972282E1
1.326764848E0,-4.182896614E-1,-7.342594862E-1,1.163727951E1
1.329176827E0,-4.146244824E-1,-8.820887208E-1,1.163605785E1
1.331588754E0,-4.072940946E-1,-1.017700672E0,1.163850117E1
1.334000734E0,-3.975202441E-1,-1.147204041E0,1.163727951E1
1.336412713E0,-3.828594983E-1,-1.273042202E0,1.163850117E1
1.338824692E0,-3.620901108E-1,-1.387884736E0,1.163727951E1
1.341236619E0,-3.364337683E-1,-1.491731763E0,1.163972282E1
1.343648598E0,-3.083339930E-1,-1.587026715E0,1.164216614E1
1.346060577E0,-2.741255760E-1,-1.662773967E0,1.164216614E1
1.348472557E0,-2.362519503E-1,-1.725082159E0,1.164460945E1
1.350884484E0,-1.971566081E-1,-1.783725142E0,1.164705372E1
1.353296463E0,-1.580612659E-1,-1.830150843E0,1.164827538E1
1.355708442E0,-1.140789986E-1,-1.852141976E0,1.164827538E1
1.358120369E0,-7.376192510E-2,-1.850920320E0,1.164827538E1
1.360532348E0,-3.100138716E-2,-1.821598768E0,1.164827538E1
1.362944327E0,8.093958721E-3,-1.776394725E0,1.164705372E1
1.365356254E0,4.841103405E-2,-1.718973517E0,1.164583206E1
1.367768234E0,8.384118974E-2,-1.657886982E0,1.164338779E1
1.370180213E0,1.204930767E-1,-1.593135357E0,1.164216614E1
1.372592192E0,1.547015011E-1,-1.516166329E0,1.164094448E1
1.375004119E0,1.876882017E-1,-1.420871496E0,1.163727951E1
1.377416098E0,2.145662606E-1,-1.291368127E0,1.163239288E1
1.379828077E0,2.377791107E-1,-1.152091026E0,1.162872696E1
1.382240004E0,2.561050653E-1,-1.001818180E0,1.162384033E1
1.384651984E0,2.683223486E-1,-8.332195878E-1,1.162017536E1
1.387063963E0,2.756527364E-1,-6.536253095E-1,1.161773205E1
1.389475890E0,2.756527364E-1,-4.703658819E-1,1.161284447E1
1.391887869E0,2.707658112E-1,-2.968802750E-1,1.161040115E1
1.394299848E0,2.609919906E-1,-1.282816082E-1,1.160673618E1
1.396711827E0,2.438877672E-1,3.543015569E-2,1.160429287E1
1.399123754E0,2.218966335E-1,1.942549944E-1,1.160429287E1
1.401535734E0,1.913533956E-1,3.543015718E-1,1.160184956E1
1.403947713E0,1.522580534E-1,5.192350745E-1,1.160184956E1
1.406359640E0,1.082757786E-1,6.780598760E-1,1.160307121E1
1.408771619E0,5.696314201E-2,8.319978118E-1,1.160307121E1
1.411183598E0,-4.123337101E-3,9.700532556E-1,1.160551453E1
1.413595525E0,-7.009673119E-2,1.088561058E0,1.160673618E1
1.416007504E0,-1.446222365E-1,1.196073294E0,1.160673618E1
1.418419484E0,-2.203694731E-1,1.293811560E0,1.160673618E1
1.420831463E0,-2.985601723E-1,1.372002244E0,1.160917950E1
1.423243390E0,-3.804160357E-1,1.418428063E0,1.160917950E1
1.425655369E0,-4.561632872E-1,1.448971272E0,1.160795784E1
1.428067296E0,-5.319104791E-1,1.470962405E0,1.160917950E1
1.430479275E0,-6.076577306E-1,1.485623121E0,1.160795784E1
1.432891254E0,-6.797397733E-1,1.480736256E0,1.160551453E1
1.435303234E0,-7.506000996E-1,1.450192928E0,1.160184956E1
1.437715213E0,-8.226821423E-1,1.403767228E0,1.160062790E1
1.440127140E0,-8.910989761E-1,1.345124245E0,1.159574032E1
1.442539119E0,-9.570723772E-1,1.268155336E0,1.159207535E1
1.444951098E0,-1.018158913E0,1.177747250E0,1.158841038E1
1.447363025E0,-1.078023672E0,1.069013357E0,1.158352375E1
1.449775004E0,-1.128114581E0,9.431751966E-1,1.157863617E1
1.452186984E0,-1.175761938E0,8.014546037E-1,1.157252789E1
1.454598911E0,-1.217300773E0,6.548470259E-1,1.156764126E1
1.457010890E0,-1.253952622E0,5.082395077E-1,1.156397533E1
1.459422869E0,-1.284495950E0,3.530798554E-1,1.156153202E1
1.461834848E0,-1.308930516E0,1.905898154E-1,1.155664539E1
1.464246775E0,-1.322369576E0,1.588248461E-2,1.155175877E1
1.466658754E0,-1.332143426E0,-1.600465775E-1,1.154687119E1
1.469070734E0,-1.332143426E0,-3.384190798E-1,1.154564953E1
1.471482661E0,-1.327256441E0,-5.192350745E-1,1.154564953E1
1.473894640E0,-1.316260934E0,-6.939423680E-1,1.154198456E1
1.476306619E0,-1.299156666E0,-8.637627959E-1,1.154198456E1
1.478718546E0,-1.275943756E0,-1.032361507E0,1.154076290E1
1.481130525E0,-1.239291906E0,-1.197294950E0,1.154198456E1
1.483542504E0,-1.195309639E0,-1.357341528E0,1.154320621E1
1.485954484E0,-1.136666656E0,-1.508836031E0,1.154687119E1
1.488366411E0,-1.071915030E0,-1.649334908E0,1.154931450E1
1.490778390E0,-9.949460030E-1,-1.775173068E0,1.155298042E1
1.493190369E0,-9.082031846E-1,-1.883906960E0,1.155786705E1
1.495602296E0,-8.190169334E-1,-1.979201913E0,1.156275368E1
1.498014275E0,-7.261655331E-1,-2.058614254E0,1.156764126E1
1.500426254E0,-6.296488643E-1,-2.118479013E0,1.157008457E1
1.502838182E0,-5.319104791E-1,-2.167348146E0,1.157374954E1
1.505250161E0,-4.280634820E-1,-2.201556683E0,1.157497120E1
1.507662140E0,-3.254382014E-1,-2.213773966E0,1.157863617E1
1.510074119E0,-2.203694731E-1,-2.194226265E0,1.158107948E1
1.512486046E0,-1.177441850E-1,-2.141691923E0,1.158230209E1
1.514898025E0,-1.756236330E-2,-2.070831537E0,1.158230209E1
1.517310004E0,7.651081681E-2,-1.985310555E0,1.158352375E1
1.519721932E0,1.681405306E-1,-1.892459035E0,1.158474541E1
1.522133911E0,2.561050653E-1,-1.792277217E0,1.158230209E1
1.524545890E0,3.428478539E-1,-1.688430309E0,1.158230209E1
1.526957869E0,4.247037470E-1,-1.577252865E0,1.157985783E1
1.529369796E0,5.016726851E-1,-1.459966779E0,1.157741451E1
1.531781775E0,5.737547278E-1,-1.335350394E0,1.157374954E1
1.534193754E0,6.397281289E-1,-1.202181935E0,1.157252789E1
1.536605682E0,7.032580972E-1,-1.054352641E0,1.157008457E1
1.539017661E0,7.582359314E-1,-8.955277801E-1,1.156519699E1
1.541429640E0,8.095485568E-1,-7.269290686E-1,1.156275368E1
1.543841567E0,8.523091078E-1,-5.534434915E-1,1.156031036E1
1.546253546E0,8.889609575E-1,-3.824013472E-1,1.155908871E1
1.548665525E0,9.170607328E-1,-2.174678594E-1,1.155542374E1
1.551077504E0,9.390518665E-1,-5.742128938E-2,1.155664539E1
1.553489432E0,9.524909258E-1,9.896009415E-2,1.155664539E1
1.555901411E0,9.585995674E-1,2.614501119E-1,1.155542374E1
1.558313390E0,9.537126422E-1,4.288270772E-1,1.155664539E1
1.560725317E0,9.402735829E-1,5.962040424E-1,1.155664539E1
1.563137296E0,9.182825089E-1,7.452550530E-1,1.155908871E1
1.565549275E0,8.889609575E-1,8.710931540E-1,1.156031036E1
1.567961254E0,8.535308242E-1,9.847140312E-1,1.156275368E1
1.570373182E0,8.144354820E-1,1.095891356E0,1.156397533E1
1.572785161E0,7.692314982E-1,1.204625368E0,1.156641960E1
1.575197140E0,7.191405892E-1,1.307250619E0,1.156886292E1
1.577609067E0,6.666061878E-1,1.386663079E0,1.156886292E1
1.580021046E0,6.079631448E-1,1.439197421E0,1.156886292E1
1.582433025E0,5.456549525E-1,1.468518972E0,1.156764126E1
1.584844952E0,4.760163724E-1,1.481957912E0,1.156641960E1
1.587256932E0,4.075995386E-1,1.480736256E0,1.156519699E1
1.589668911E0,3.330740333E-1,1.457523346E0,1.155908871E1
1.592080890E0,2.622137070E-1,1.423314929E0,1.155786705E1
1.594492817E0,1.864664704E-1,1.375667453E0,1.155298042E1
1.596904796E0,1.119409725E-1,1.315802693E0,1.154931450E1
1.599316775E0,3.741546720E-2,1.237612009E0,1.154198456E1
1.601728702E0,-3.222311661E-2,1.138651967E0,1.153831959E1
1.604140682E0,-1.018617004E-1,1.022587657E0,1.153098869E1
1.606552661E0,-1.678351015E-1,9.028581381E-1,1.152610207E1
1.608964588E0,-2.313650399E-1,7.806851864E-1,1.151999378E1
1.611376567E0,-2.912297845E-1,6.560688019E-1,1.151388454E1
1.613788546E0,-3.462076187E-1,5.302306414E-1,1.150777626E1
1.616200473E0,-3.999637067E-1,3.995055556E-1,1.150166798E1
1.618612452E0,-4.476111531E-1,2.687804997E-1,1.149555874E1
1.621024432E0,-4.928151667E-1,1.319467872E-1,1.149067211E1
1.623436411E0,-5.319104791E-1,-4.886918236E-3,1.148334122E1
1.625848338E0,-5.661189556E-1,-1.453858167E-1,1.147845459E1
1.628260265E0,-5.929969549E-1,-2.871064544E-1,1.147601128E1
1.630672296E0,-6.162098646E-1,-4.300487936E-1,1.147234631E1
1.633084223E0,-6.333140731E-1,-5.681042671E-1,1.147112465E1
1.635496202E0,-6.430879235E-1,-7.012727857E-1,1.147112465E1
1.637908129E0,-6.491965652E-1,-8.307760954E-1,1.146868038E1
1.640320109E0,-6.528617144E-1,-9.590576887E-1,1.146868038E1
1.642732088E0,-6.540834904E-1,-1.097113132E0,1.146745872E1
1.645144067E0,-6.491965652E-1,-1.232725143E0,1.146745872E1
1.647556046E0,-6.394227147E-1,-1.354898095E0,1.146990299E1
1.649967973E0,-6.223185062E-1,-1.446527839E0,1.146990299E1
1.652379952E0,-5.978838801E-1,-1.525940180E0,1.147234631E1
1.654791932E0,-5.746710300E-1,-1.612683058E0,1.147234631E1
1.657203859E0,-5.490147471E-1,-1.700647593E0,1.147478962E1
1.659615838E0,-5.160280466E-1,-1.764177442E0,1.147723293E1
1.662027817E0,-4.793761373E-1,-1.808159709E0,1.147967625E1
1.664439796E0,-4.415025115E-1,-1.830150843E0,1.148089790E1
1.666851723E0,-3.987419903E-1,-1.827707410E0,1.148089790E1
1.669263702E0,-3.559814394E-1,-1.803272843E0,1.148211956E1
1.671675682E0,-3.132209182E-1,-1.764177442E0,1.147967625E1
1.674087609E0,-2.729038298E-1,-1.715308309E0,1.148089790E1
1.676499588E0,-2.350302190E-1,-1.667660832E0,1.147967625E1
1.678911567E0,-1.971566081E-1,-1.604130864E0,1.147845459E1
1.681323494E0,-1.580612659E-1,-1.516166329E0,1.147723293E1
1.683735421E0,-1.226311028E-1,-1.415984511E0,1.147478962E1
1.686147452E0,-8.964440972E-2,-1.314581037E0,1.147356796E1
1.688559432E0,-6.032289565E-2,-1.213177443E0,1.146990299E1
1.690971359E0,-3.466657549E-2,-1.109330416E0,1.146868038E1
1.693383338E0,-1.267544460E-2,-9.883792400E-1,1.146623707E1
1.695795317E0,8.093958721E-3,-8.491020203E-1,1.146379375E1
1.698207244E0,2.275471389E-2,-7.024945021E-1,1.146135044E1
1.700619223E0,3.375028074E-2,-5.497782826E-1,1.145890713E1
1.703031202E0,3.741546720E-2,-3.958403766E-1,1.145646381E1
1.705443129E0,4.352411628E-2,-2.406807244E-1,1.145402050E1
1.707855109E0,3.619373962E-2,-8.918625861E-2,1.145279789E1
1.710267088E0,2.764163166E-2,5.864302069E-2,1.145035458E1
1.712679067E0,9.315688163E-3,1.979201883E-1,1.145035458E1
1.715090994E0,-1.023198478E-2,3.335321844E-1,1.145035458E1
1.717502973E0,-3.711003438E-2,4.593703151E-1,1.145035458E1
1.719914952E0,-6.520981342E-2,5.742129087E-1,1.145157623E1
1.722326879E0,-1.006399691E-1,6.817250848E-1,1.145157623E1
1.724738859E0,-1.409570426E-1,7.843503952E-1,1.145402050E1
1.727150838E0,-1.800523996E-1,8.820887208E-1,1.145524216E1
1.729562765E0,-2.203694731E-1,9.859357476E-1,1.145646381E1
1.731974744E0,-2.643517256E-1,1.086117625E0,1.145524216E1
1.734386723E0,-3.119991720E-1,1.165529966E0,1.145524216E1
1.736798702E0,-3.608683646E-1,1.220507860E0,1.145646381E1
1.739210629E0,-4.072940946E-1,1.253494501E0,1.145646381E1
1.741622609E0,-4.598284662E-1,1.273042202E0,1.145402050E1
1.744034588E0,-5.099193454E-1,1.282816052E0,1.145157623E1
1.746446515E0,-5.648971796E-1,1.292589903E0,1.145157623E1
1.748858494E0,-6.162098646E-1,1.295033336E0,1.145035458E1
1.751270473E0,-6.650790572E-1,1.284037709E0,1.144668961E1
1.753682400E0,-7.115047574E-1,1.246164203E0,1.144546795E1
1.756094379E0,-7.542653084E-1,1.181412458E0,1.144302464E1
1.758506359E0,-7.970257998E-1,1.100778341E0,1.143813801E1
1.760918338E0,-8.348994255E-1,1.004261732E0,1.143569374E1
1.763330265E0,-8.727730513E-1,8.943060637E-1,1.143202877E1
1.765742244E0,-9.008728266E-1,7.757982612E-1,1.142714214E1
1.768154223E0,-9.301943183E-1,6.511818767E-1,1.142347717E1
1.770566150E0,-9.509637356E-1,5.216785073E-1,1.142103291E1
1.772978129E0,-9.705114365E-1,3.799578846E-1,1.141614628E1
1.775390109E0,-9.815070033E-1,2.247982323E-1,1.141248131E1
1.777802036E0,-9.912807941E-1,6.230820715E-2,1.141125965E1
1.780213963E0,-9.912807941E-1,-1.099556610E-1,1.140759468E1
1.782625994E0,-9.863939285E-1,-2.871064544E-1,1.140515041E1
1.785037973E0,-9.753983617E-1,-4.667007029E-1,1.140148544E1
1.787449900E0,-9.558506608E-1,-6.499601007E-1,1.140026379E1
1.789861879E0,-9.265291691E-1,-8.246674538E-1,1.140148544E1
1.792273859E0,-8.898772597E-1,-9.871574640E-1,1.140270710E1
1.794685786E0,-8.446732759E-1,-1.141095400E0,1.140392876E1
1.797097765E0,-7.921388745E-1,-1.286481261E0,1.140759468E1
1.799509744E0,-7.322741747E-1,-1.430645347E0,1.141003799E1
1.801921723E0,-6.675224900E-1,-1.566257238E0,1.141248131E1
1.804333650E0,-5.978838801E-1,-1.682321548E0,1.141614628E1
1.806745629E0,-5.221366882E-1,-1.778838277E0,1.141858959E1
1.809157557E0,-4.402807951E-1,-1.857028961E0,1.142225552E1
1.811569536E0,-3.523162603E-1,-1.927889228E0,1.142714214E1
1.813981515E0,-2.606865466E-1,-1.985310555E0,1.143080711E1
1.816393494E0,-1.727220118E-1,-2.025627613E0,1.143325043E1
1.818805421E0,-7.864884287E-2,-2.042731762E0,1.143691540E1
1.821217400E0,1.175914705E-2,-2.040288448E0,1.143935966E1
1.823629379E0,1.046105921E-1,-2.029292822E0,1.144180298E1
1.826041307E0,1.962403059E-1,-2.006079912E0,1.144180298E1
1.828453286E0,2.854265571E-1,-1.969428062E0,1.144058132E1
1.830865265E0,3.770562708E-1,-1.919337153E0,1.143813801E1
1.833277244E0,4.650208056E-1,-1.854585528E0,1.143691540E1
1.835689171E0,5.480984449E-1,-1.770286083E0,1.143447208E1
1.838101150E0,6.275108457E-1,-1.656665325E0,1.143202877E1
1.840513129E0,7.008146048E-1,-1.516166329E0,1.143080711E1
1.842925057E0,7.667880058E-1,-1.367115378E0,1.142592049E1
1.845337036E0,8.229875565E-1,-1.207068801E0,1.142347717E1
1.847749015E0,8.718567491E-1,-1.047022223E0,1.141981125E1
1.850160994E0,9.182825089E-1,-8.845322132E-1,1.141736794E1
1.852572921E0,9.549343586E-1,-7.318159938E-1,1.141370296E1
1.854984900E0,9.854776263E-1,-5.900954008E-1,1.141125965E1
1.857396879E0,1.007468700E0,-4.434878230E-1,1.141003799E1
1.859808807E0,1.020907760E0,-2.822195292E-1,1.140759468E1
1.862220786E0,1.029459834E0,-1.160643101E-1,1.140637302E1
1.864632765E0,1.029459834E0,4.642572254E-2,1.140515041E1
1.867044692E0,1.023351192E0,1.966984570E-1,1.140392876E1
1.869456671E0,1.007468700E0,3.371973634E-1,1.140392876E1
1.871868650E0,9.879210591E-1,4.691441655E-1,1.140515041E1
1.874280577E0,9.598212838E-1,6.071996093E-1,1.140515041E1
1.876692557E0,9.243911505E-1,7.513636947E-1,1.140759468E1
1.879104536E0,8.816305995E-1,9.016364217E-1,1.140881634E1
1.881516463E0,8.339831233E-1,1.051909208E0,1.140759468E1
1.883928442E0,7.728966475E-1,1.177747250E0,1.141003799E1
1.886340421E0,7.069232464E-1,1.281594276E0,1.140881634E1
1.888752400E0,6.360629797E-1,1.373224020E0,1.140881634E1
1.891164327E0,5.627591610E-1,1.451414704E0,1.140759468E1
1.893576307E0,4.821250141E-1,1.507614255E0,1.140392876E1
1.895988286E0,3.978256881E-1,1.541822672E0,1.140392876E1
1.898400265E0,3.086394370E-1,1.560148597E0,1.140148544E1
1.900812192E0,2.218966335E-1,1.558926940E0,1.139904213E1
1.903224171E0,1.314886510E-1,1.538157463E0,1.139659882E1
1.905636150E0,3.985892609E-2,1.501505613E0,1.139171219E1
1.908048077E0,-5.543597788E-2,1.451414704E0,1.138560295E1
1.910460057E0,-1.507308781E-1,1.389106512E0,1.137705135E1
1.912872036E0,-2.484692484E-1,1.325576544E0,1.137094212E1
1.915283963E0,-3.425424397E-1,1.264490128E0,1.136239052E1
1.917695942E0,-4.353938699E-1,1.197294950E0,1.135139465E1
1.920107921E0,-5.209149122E-1,1.106886983E0,1.134406471E1
1.922519848E0,-6.003273726E-1,9.896009564E-1,1.133795547E1
1.924931827E0,-6.736311316E-1,8.491020203E-1,1.132940388E1
1.927343807E0,-7.432697415E-1,6.902772188E-1,1.132329464E1
1.929755786E0,-8.080213666E-1,5.216785073E-1,1.131718636E1
1.932167713E0,-8.703296185E-1,3.371973634E-1,1.131229973E1
1.934579588E0,-9.253074527E-1,1.478292793E-1,1.130741215E1
1.936991671E0,-9.729548693E-1,-4.642572254E-2,1.130130386E1
1.939403598E0,-1.010828495E0,-2.345720828E-1,1.129641724E1
1.941815577E0,-1.042593479E0,-4.141663313E-1,1.129152966E1
1.944227557E0,-1.064584613E0,-5.852084756E-1,1.128908634E1
1.946639484E0,-1.079245329E0,-7.476984859E-1,1.128908634E1
1.949051463E0,-1.090240955E0,-9.004147053E-1,1.128786469E1
1.951463442E0,-1.090240955E0,-1.047022223E0,1.128908634E1
1.953875421E0,-1.085353971E0,-1.198516726E0,1.128908634E1
1.956287348E0,-1.071915030E0,-1.356119752E0,1.129275131E1
1.958699327E0,-1.051145554E0,-1.505170822E0,1.129641724E1
1.961111307E0,-1.024267554E0,-1.639561057E0,1.129886055E1
1.963523234E0,-9.876156449E-1,-1.754403591E0,1.130374718E1
1.965935213E0,-9.460768104E-1,-1.853363752E0,1.130741215E1
1.968347192E0,-8.996511102E-1,-1.931554437E0,1.131107807E1
1.970759119E0,-8.507819176E-1,-1.992640853E0,1.131596470E1
1.973171098E0,-7.982475758E-1,-2.057392597E0,1.131718636E1
1.975583077E0,-7.383828163E-1,-2.100153208E0,1.131840801E1
1.977995057E0,-6.724094152E-1,-2.103818417E0,1.132207298E1
1.980406984E0,-6.052142978E-1,-2.076940298E0,1.132329464E1
1.982818963E0,-5.416843295E-1,-2.021962404E0,1.132573891E1
1.985230942E0,-4.793761373E-1,-1.949880362E0,1.132451630E1
1.987642869E0,-4.207331240E-1,-1.875354886E0,1.132451630E1
1.990054848E0,-3.645335436E-1,-1.804494500E0,1.132451630E1
1.992466827E0,-3.046688139E-1,-1.721416950E0,1.132207298E1
1.994878754E0,-2.448040545E-1,-1.611461282E0,1.131962967E1
1.997290734E0,-1.910479665E-1,-1.488066554E0,1.131718636E1
1.999702713E0,-1.348484010E-1,-1.352454662E0,1.131229973E1
2.002114692E0,-8.231402934E-2,-1.209512234E0,1.130985641E1
2.004526619E0,-3.466657549E-2,-1.056796074E0,1.130496883E1
2.006938598E0,6.872228812E-3,-8.943060637E-1,1.130130386E1
2.009350577E0,4.596757516E-2,-7.232639194E-1,1.129886055E1
2.011762504E0,8.017600328E-2,-5.497782826E-1,1.129519558E1
2.014174484E0,1.094975099E-1,-3.762927055E-1,1.129397392E1
2.016586411E0,1.327103674E-1,-2.028071135E-1,1.128786469E1
2.018998390E0,1.510363221E-1,-3.176496923E-2,1.128542137E1
2.021410369E0,1.608101577E-1,1.356119812E-1,1.128419971E1
2.023822348E0,1.669187993E-1,3.005454838E-1,1.128175640E1
2.026234275E0,1.644753367E-1,4.618137777E-1,1.127931309E1
2.028646254E0,1.534797698E-1,6.133082509E-1,1.128053474E1
2.031058234E0,1.351538301E-1,7.574723363E-1,1.128297806E1
2.033470213E0,1.107192412E-1,8.857539296E-1,1.128419971E1
2.035882140E0,8.506292105E-2,1.014035583E0,1.128786469E1
2.038294119E0,4.963276163E-2,1.138651967E0,1.128908634E1
2.040706098E0,8.093958721E-3,1.242498994E0,1.129030800E1
2.043118025E0,-3.588830680E-2,1.325576544E0,1.129152966E1
2.045530004E0,-8.353576064E-2,1.398880363E0,1.129152966E1
2.047941984E0,-1.324049383E-1,1.464853764E0,1.129152966E1
2.050353859E0,-1.824958473E-1,1.511279464E0,1.129152966E1
2.052765838E0,-2.338084877E-1,1.527161956E0,1.129152966E1
2.055177869E0,-2.790125012E-1,1.506392598E0,1.128908634E1
2.057589848E0,-3.229947388E-1,1.461188555E0,1.128664303E1
2.060001775E0,-3.620901108E-1,1.403767228E0,1.128419971E1
2.062413702E0,-4.036289155E-1,1.337793827E0,1.128053474E1
2.064825734E0,-4.439459741E-1,1.260824919E0,1.127686882E1
2.067237661E0,-4.854847789E-1,1.176525593E0,1.127442551E1
2.069649640E0,-5.233584046E-1,1.077565432E0,1.126953888E1
2.072061619E0,-5.587885380E-1,9.566142559E-1,1.126465225E1
2.074473598E0,-5.917752385E-1,8.173370957E-1,1.125976467E1
2.076885525E0,-6.186532974E-1,6.682860851E-1,1.125487804E1
2.079297504E0,-6.418661475E-1,5.106829405E-1,1.125121307E1
2.081709484E0,-6.589703560E-1,3.469711840E-1,1.124754810E1
2.084121411E0,-6.663007736E-1,1.844811589E-1,1.124388218E1
2.086533390E0,-6.736311316E-1,1.954767294E-2,1.124143887E1
2.088945369E0,-6.736311316E-1,-1.453858167E-1,1.124021721E1
2.091357296E0,-6.699659228E-1,-3.078758419E-1,1.123777390E1
2.093769223E0,-6.601921320E-1,-4.703658819E-1,1.123410892E1
2.096181254E0,-6.430879235E-1,-6.316341758E-1,1.123533058E1
2.098593182E0,-6.198750138E-1,-7.880155444E-1,1.123777390E1
2.101005161E0,-5.893318057E-1,-9.431751966E-1,1.123777390E1
2.103417140E0,-5.526798964E-1,-1.089782715E0,1.123899555E1
2.105829067E0,-5.123628378E-1,-1.232725143E0,1.124143887E1
2.108241046E0,-4.659371078E-1,-1.367115378E0,1.124388218E1
2.110653025E0,-4.146244824E-1,-1.494175196E0,1.124754810E1
2.113065004E0,-3.572031856E-1,-1.609017849E0,1.125243473E1
2.115476932E0,-2.936732471E-1,-1.709199667E0,1.125609970E1
2.117888911E0,-2.276998460E-1,-1.793498993E0,1.125854301E1
2.120300890E0,-1.605047137E-1,-1.869246244E0,1.126465225E1
2.122712817E0,-9.086613357E-2,-1.936441302E0,1.126831722E1
2.125124796E0,-1.634063199E-2,-1.987753987E0,1.127076054E1
2.127536775E0,5.818486959E-2,-2.018297195E0,1.127320385E1
2.129948754E0,1.314886510E-1,-2.031736374E0,1.127564716E1
2.132360682E0,2.035706937E-1,-2.034179688E0,1.127686882E1
2.134772661E0,2.780961990E-1,-2.018297195E0,1.127686882E1
2.137184640E0,3.526217043E-1,-1.977980137E0,1.127686882E1
2.139597296E0,4.234820008E-1,-1.919337153E0,1.127809143E1
2.142008546E0,4.906771481E-1,-1.849698544E0,1.127442551E1
2.144420525E0,5.554288030E-1,-1.769064426E0,1.127320385E1
2.146832452E0,6.177369952E-1,-1.679878116E0,1.127076054E1
2.149244432E0,6.776017547E-1,-1.585804939E0,1.126709557E1
2.151656411E0,7.350230217E-1,-1.470962405E0,1.126465225E1
2.154068338E0,7.863357067E-1,-1.325576544E0,1.125854301E1
2.156480317E0,8.278744817E-1,-1.153312683E0,1.125487804E1
2.158892296E0,8.608611822E-1,-9.676098228E-1,1.124999142E1
2.161304275E0,8.865175247E-1,-7.806851864E-1,1.124754810E1
2.163716202E0,9.060651660E-1,-5.962040424E-1,1.124266052E1
2.166128182E0,9.231693745E-1,-4.178315103E-1,1.123655224E1
2.168540161E0,9.317215085E-1,-2.504545450E-1,1.123166561E1
2.170952088E0,9.329432249E-1,-8.552107215E-2,1.123166561E1
2.173364067E0,9.219476581E-1,9.407317638E-2,1.122799969E1
2.175776046E0,9.024000168E-1,2.834412456E-1,1.122555637E1
2.178187973E0,8.743002415E-1,4.752528071E-1,1.122189140E1
2.180599952E0,8.352048993E-1,6.695078015E-1,1.122066975E1
2.183011932E0,7.851139307E-1,8.539889455E-1,1.121944809E1
2.185423911E0,7.240274549E-1,1.014035583E0,1.121822643E1
2.187835838E0,6.556106210E-1,1.152091026E0,1.121944809E1
2.190247817E0,5.835285783E-1,1.273042202E0,1.121944809E1
2.192659796E0,5.053378940E-1,1.380554438E0,1.122066975E1
2.195071723E0,4.210385382E-1,1.474627614E0,1.122066975E1
2.197483702E0,3.306305707E-1,1.557705164E0,1.122066975E1
2.199895682E0,2.353356630E-1,1.629787207E0,1.121944809E1
2.202307609E0,1.375972927E-1,1.694538951E0,1.121578312E1
2.204719588E0,3.863719851E-2,1.740964651E0,1.121333885E1
2.207131567E0,-6.398808211E-2,1.750738502E0,1.121089554E1
2.209543494E0,-1.702785641E-1,1.727525592E0,1.120723057E1
2.211955473E0,-2.704603672E-1,1.688430309E0,1.120478725E1
2.214367452E0,-3.706422150E-1,1.629787207E0,1.119867897E1
2.216779432E0,-4.720457494E-1,1.551596522E0,1.119134808E1
2.219191359E0,-5.710058808E-1,1.458745122E0,1.118401814E1
2.221603338E0,-6.687442064E-1,1.359784961E0,1.117790890E1
2.224015317E0,-7.615956664E-1,1.251051068E0,1.116935730E1
2.226427244E0,-8.495602012E-1,1.132543325E0,1.116202641E1
2.228839223E0,-9.314160943E-1,1.007926941E0,1.115347481E1
2.231251202E0,-1.003498077E0,8.735366464E-1,1.114736557E1
2.233663077E0,-1.071915030E0,7.195987105E-1,1.113881397E1
2.236075109E0,-1.134223223E0,5.461131334E-1,1.113637066E1
2.238487088E0,-1.190422773E0,3.579667509E-1,1.113148308E1
2.240899067E0,-1.240513682E0,1.576031148E-1,1.112415314E1
2.243310994E0,-1.282052398E0,-4.642572254E-2,1.112048817E1
2.245722973E0,-1.316260934E0,-2.516762912E-1,1.111682224E1
2.248134952E0,-1.340695500E0,-4.544833899E-1,1.111560059E1
2.250546879E0,-1.356577992E0,-6.560688019E-1,1.111193562E1
2.252958859E0,-1.359021425E0,-8.552106619E-1,1.111315727E1
2.255370838E0,-1.350469351E0,-1.044578791E0,1.111437893E1
2.257782765E0,-1.330921650E0,-1.221729517E0,1.112048817E1
2.260194744E0,-1.297934890E0,-1.387884736E0,1.112415314E1
2.262606723E0,-1.257617831E0,-1.541822672E0,1.112903976E1
2.265018650E0,-1.214857340E0,-1.683543324E0,1.113514900E1
2.267430629E0,-1.164766431E0,-1.817933559E0,1.113881397E1
2.269842609E0,-1.108566880E0,-1.937663078E0,1.114492226E1
2.272254588E0,-1.048702121E0,-2.037844896E0,1.114980984E1
2.274666515E0,-9.839504361E-1,-2.122144222E0,1.115347481E1
2.277078494E0,-9.130901098E-1,-2.185674191E0,1.115836143E1
2.279490473E0,-8.361211419E-1,-2.222326040E0,1.115958309E1
2.281902400E0,-7.542653084E-1,-2.228434801E0,1.116202641E1
2.284314379E0,-6.724094152E-1,-2.217439175E0,1.116569233E1
2.286726359E0,-5.929969549E-1,-2.186895847E0,1.116569233E1
2.289138286E0,-5.148062706E-1,-2.120922565E0,1.116446972E1
2.291550265E0,-4.366155863E-1,-2.034179688E0,1.116691399E1
2.293962192E0,-3.620901108E-1,-1.947436929E0,1.116446972E1
2.296374223E0,-2.875646055E-1,-1.859472394E0,1.116324806E1
2.298786150E0,-2.191477418E-1,-1.764177442E0,1.116202641E1
2.301198077E0,-1.470656991E-1,-1.662773967E0,1.115836143E1
2.303610109E0,-7.864884287E-2,-1.545487881E0,1.115591812E1
2.306022036E0,-1.145371422E-2,-1.415984511E0,1.115103149E1
2.308434015E0,5.207622424E-2,-1.276707411E0,1.114858723E1
2.310845994E0,1.143844277E-1,-1.123991251E0,1.114247894E1
2.313257921E0,1.669187993E-1,-9.663881063E-1,1.113881397E1
2.315669900E0,2.170097083E-1,-8.075632453E-1,1.113270473E1
2.318081879E0,2.622137070E-1,-6.450732350E-1,1.112781811E1
2.320493859E0,3.049742281E-1,-4.813614488E-1,1.112293148E1
2.322905786E0,3.391826749E-1,-3.164279461E-1,1.112048817E1
2.325317765E0,3.660607338E-1,-1.490510106E-1,1.111804485E1
2.327729744E0,3.856084049E-1,2.199113183E-2,1.111560059E1
2.330141671E0,3.990474045E-1,1.918115467E-1,1.111437893E1
2.332553650E0,4.039343297E-1,3.567450345E-1,1.111315727E1
2.334965629E0,4.027126133E-1,5.070177913E-1,1.111437893E1
2.337377557E0,3.929387629E-1,6.475166678E-1,1.111560059E1
2.339789536E0,3.794997334E-1,7.684679031E-1,1.111437893E1
2.342201515E0,3.611738086E-1,8.820887208E-1,1.111682224E1
2.344613442E0,3.367392123E-1,9.944878817E-1,1.111804485E1
2.347025421E0,3.098611534E-1,1.103221774E0,1.112170982E1
2.349437400E0,2.793179154E-1,1.193629742E0,1.112293148E1
2.351849379E0,2.463312149E-1,1.264490128E0,1.112293148E1
2.354261307E0,2.084576041E-1,1.319467902E0,1.112170982E1
2.356673286E0,1.693622619E-1,1.359784961E0,1.112415314E1
2.359085213E0,1.290451884E-1,1.380554438E0,1.112293148E1
2.361497192E0,8.872810751E-2,1.392771721E0,1.112293148E1
2.363909171E0,4.596757516E-2,1.392771721E0,1.112293148E1
2.366321150E0,4.428769462E-3,1.375667453E0,1.112048817E1
2.368733077E0,-3.588830680E-2,1.339015603E0,1.111926651E1
2.371145057E0,-7.620538026E-2,1.285259485E0,1.111804485E1
2.373557036E0,-1.177441850E-1,1.216842651E0,1.111560059E1
2.375968963E0,-1.580612659E-1,1.144760609E0,1.111193562E1
2.378380942E0,-1.971566081E-1,1.058017850E0,1.110704899E1
2.380792921E0,-2.350302190E-1,9.529490471E-1,1.110460567E1
2.383204900E0,-2.704603672E-1,8.283326626E-1,1.110093975E1
2.385616827E0,-2.997818887E-1,6.939423680E-1,1.109849644E1
2.388028807E0,-3.278816640E-1,5.510000587E-1,1.109360981E1
2.390440786E0,-3.486510813E-1,4.043924809E-1,1.108994484E1
2.392852713E0,-3.669770062E-1,2.553414702E-1,1.108627987E1
2.395264692E0,-3.828594983E-1,1.050687432E-1,1.108139229E1
2.397676671E0,-3.914116025E-1,-5.131264031E-2,1.108017063E1
2.400088650E0,-3.975202441E-1,-2.125809491E-1,1.107772732E1
2.402500577E0,-3.987419903E-1,-3.738492429E-1,1.107528400E1
2.404912557E0,-3.926333487E-1,-5.302306414E-1,1.107406235E1
2.407324536E0,-3.828594983E-1,-6.878337264E-1,1.107406235E1
2.409736411E0,-3.645335436E-1,-8.381064534E-1,1.107406235E1
2.412148442E0,-3.425424397E-1,-9.798271060E-1,1.107528400E1
2.414560421E0,-3.132209182E-1,-1.104443550E0,1.107650566E1
2.416972348E0,-2.838993967E-1,-1.215620875E0,1.107894897E1
2.419384327E0,-2.472475171E-1,-1.323133111E0,1.108139229E1
2.421796307E0,-2.130390853E-1,-1.426980138E0,1.108383560E1
2.424208286E0,-1.739437431E-1,-1.524718523E0,1.108505726E1
2.426620213E0,-1.324049383E-1,-1.611461282E0,1.108627987E1
2.429032192E0,-8.720094711E-2,-1.683543324E0,1.108750153E1
2.431444119E0,-3.711003438E-2,-1.747073293E0,1.108994484E1
2.433856098E0,1.542433538E-2,-1.795942426E0,1.109238815E1
2.436268077E0,7.040216774E-2,-1.825263977E0,1.109360981E1
2.438680057E0,1.241582632E-1,-1.844811678E0,1.109483147E1
2.441091984E0,1.754709035E-1,-1.848476768E0,1.109483147E1
2.443503963E0,2.231183648E-1,-1.831372619E0,1.109605312E1
2.445915942E0,2.719875574E-1,-1.800829411E0,1.109238815E1
2.448327869E0,3.245218992E-1,-1.756847143E0,1.109116650E1
2.450739796E0,3.782780170E-1,-1.693317175E0,1.108994484E1
2.453151827E0,4.222602844E-1,-1.607796073E0,1.108627987E1
2.455563754E0,4.674642682E-1,-1.500283957E0,1.108383560E1
2.457975734E0,5.028944016E-1,-1.384219646E0,1.108139229E1
2.460387713E0,5.334376693E-1,-1.260824919E0,1.107650566E1
2.462799692E0,5.603157282E-1,-1.120326042E0,1.107161903E1
2.465211619E0,5.810851455E-1,-9.676098228E-1,1.106795311E1
2.467623598E0,5.945241451E-1,-8.075632453E-1,1.106428814E1
2.470035577E0,6.042979956E-1,-6.352993846E-1,1.106062317E1
2.472447504E0,6.116283536E-1,-4.715875983E-1,1.105817986E1
2.474859484E0,6.042979956E-1,-3.249800503E-1,1.105329323E1
2.477271463E0,5.884155035E-1,-1.869246215E-1,1.105329323E1
2.479683390E0,5.627591610E-1,-5.497783050E-2,1.105329323E1
2.482095369E0,5.358811021E-1,8.307760954E-2,1.105573654E1
2.484507348E0,5.016726851E-1,2.235765159E-1,1.105573654E1
2.486919327E0,4.686860144E-1,3.677406013E-1,1.105573654E1
2.489331254E0,4.283689260E-1,5.094612241E-1,1.105573654E1
2.491743234E0,3.856084049E-1,6.462949514E-1,1.105573654E1
2.494155213E0,3.367392123E-1,7.806851864E-1,1.105573654E1
2.496567140E0,2.842048407E-1,9.150754213E-1,1.105451488E1
2.498979119E0,2.243400961E-1,1.048243999E0,1.105451488E1
2.501391098E0,1.571449637E-1,1.175303817E0,1.105329323E1
2.503803025E0,8.261945844E-2,1.287702918E0,1.105207062E1
2.506215004E0,3.207040019E-3,1.373224020E0,1.105207062E1
2.508626984E0,-8.109229803E-2,1.435532212E0,1.105084896E1
2.511038963E0,-1.678351015E-1,1.479514480E0,1.105207062E1
2.513450890E0,-2.533561587E-1,1.511279464E0,1.105084896E1
2.515862869E0,-3.437641561E-1,1.530827165E0,1.105084896E1
2.518274848E0,-4.317286909E-1,1.532048821E0,1.104840565E1
2.520686775E0,-5.184714794E-1,1.516166329E0,1.104229736E1
2.523098754E0,-6.039925218E-1,1.478292823E0,1.103863239E1
2.525510734E0,-6.858484149E-1,1.418428063E0,1.103496647E1
2.527922661E0,-7.664825916E-1,1.340237379E0,1.103374481E1
2.530334640E0,-8.446732759E-1,1.254716277E0,1.102763653E1
2.532746619E0,-9.191987514E-1,1.155756116E0,1.102274990E1
2.535158546E0,-9.900590777E-1,1.047022223E0,1.101664066E1
2.537570525E0,-1.054810762E0,9.248492718E-1,1.101053238E1
2.539982504E0,-1.114675522E0,7.831286192E-1,1.100564575E1
2.542394432E0,-1.173318505E0,6.291907430E-1,1.100075817E1
2.544806411E0,-1.220965981E0,4.630354941E-1,1.099587154E1
2.547218390E0,-1.263726473E0,2.944368124E-1,1.099098492E1
2.549630369E0,-1.301600099E0,1.246164143E-1,1.098487568E1
2.552042296E0,-1.330921650E0,-4.642572254E-2,1.097998905E1
2.554454275E0,-1.355356216E0,-2.150243968E-1,1.097632408E1
2.556866254E0,-1.373682141E0,-3.872882724E-1,1.097388077E1
2.559278182E0,-1.383455992E0,-5.632173419E-1,1.097143650E1
2.561690161E0,-1.381012559E0,-7.379246354E-1,1.097265816E1
2.564102140E0,-1.366351843E0,-9.150754213E-1,1.097388077E1
2.566514067E0,-1.340695500E0,-1.091004491E0,1.097510242E1
2.568926046E0,-1.300378442E0,-1.252272844E0,1.097876740E1
2.571338025E0,-1.253952622E0,-1.400102019E0,1.098365402E1
2.573749952E0,-1.202640057E0,-1.539379239E0,1.098609734E1
2.576161932E0,-1.142775297E0,-1.660330415E0,1.099098492E1
2.578573911E0,-1.081688762E0,-1.760512352E0,1.099464989E1
2.580985890E0,-1.013271928E0,-1.842368126E0,1.099831486E1
2.583397817E0,-9.424116611E-1,-1.910785079E0,1.100320148E1
2.585809796E0,-8.666644096E-1,-1.973093271E0,1.100564575E1
2.588221775E0,-7.872520089E-1,-2.025627613E0,1.100931072E1
2.590633702E0,-7.041743994E-1,-2.068388224E0,1.101297569E1
2.593045682E0,-6.174315810E-1,-2.078161955E0,1.101297569E1
2.595457661E0,-5.294670463E-1,-2.057392597E0,1.101541901E1
2.597869588E0,-4.390590489E-1,-2.026849270E0,1.101664066E1
2.600281567E0,-3.510945439E-1,-1.986532211E0,1.101664066E1
2.602693546E0,-2.631300092E-1,-1.929111004E0,1.101541901E1
2.605105525E0,-1.751654744E-1,-1.846033335E0,1.101175404E1
2.607517452E0,-9.330959618E-2,-1.747073293E0,1.101053238E1
2.609929432E0,-1.145371422E-2,-1.637117624E0,1.101175404E1
2.612341411E0,6.551524997E-2,-1.525940180E0,1.100931072E1
2.614753338E0,1.375972927E-1,-1.412319422E0,1.100686741E1
2.617165317E0,2.060141414E-1,-1.299920201E0,1.100320148E1
2.619577296E0,2.695440948E-1,-1.182634234E0,1.100197983E1
2.621989223E0,3.269653618E-1,-1.058017850E0,1.099953651E1
2.624401202E0,3.794997334E-1,-9.224058390E-1,1.099709320E1
2.626813182E0,4.271472096E-1,-7.867938280E-1,1.099709320E1
2.629225109E0,4.699077308E-1,-6.450732350E-1,1.099464989E1
2.631637088E0,5.065596104E-1,-5.045742989E-1,1.099464989E1
2.634049067E0,5.371028781E-1,-3.640754223E-1,1.099220657E1
2.636460994E0,5.639809370E-1,-2.247982323E-1,1.099342823E1
2.638872973E0,5.871937871E-1,-8.796452731E-2,1.099098492E1
2.641284952E0,6.067414284E-1,4.276053607E-2,1.098976326E1
2.643696932E0,6.238456368E-1,1.710421443E-1,1.099098492E1
2.646108859E0,6.348412037E-1,2.968802750E-1,1.099098492E1
2.648520838E0,6.446150541E-1,4.227184355E-1,1.098976326E1
2.650932817E0,6.470585465E-1,5.571087003E-1,1.099098492E1
2.653344744E0,6.482802629E-1,6.976075768E-1,1.099098492E1
2.655756723E0,6.360629797E-1,8.491020203E-1,1.099220657E1
2.658168702E0,6.140718460E-1,9.981530309E-1,1.099464989E1
2.660580629E0,5.847502947E-1,1.121547699E0,1.099587154E1
2.662992609E0,5.505418777E-1,1.221729517E0,1.099709320E1
2.665404588E0,5.151117444E-1,1.293811560E0,1.099831486E1
2.667816567E0,4.723511934E-1,1.341459036E0,1.099587154E1
2.670228494E0,4.283689260E-1,1.375667453E0,1.099709320E1
2.672640473E0,3.782780170E-1,1.401323795E0,1.099831486E1
2.675052452E0,3.257436454E-1,1.412319422E0,1.099709320E1
2.677464379E0,2.732092738E-1,1.402545571E0,1.099587154E1
2.679876359E0,2.206749022E-1,1.374445796E0,1.099342823E1
2.682288338E0,1.669187993E-1,1.328019977E0,1.099098492E1
2.684700265E0,1.131627038E-1,1.263268352E0,1.098854065E1
2.687112244E0,6.185005978E-2,1.181412458E0,1.098609734E1
2.689524223E0,1.175914705E-2,1.089782715E0,1.098365402E1
2.691936150E0,-3.588830680E-2,9.883792400E-1,1.097754574E1
2.694348129E0,-8.109229803E-2,8.808670044E-1,1.097265816E1
2.696760109E0,-1.287397593E-1,7.660244107E-1,1.096777153E1
2.699172088E0,-1.715002805E-1,6.389645338E-1,1.096532822E1
2.701584015E0,-2.142608166E-1,5.045742989E-1,1.096044159E1
2.703995994E0,-2.533561587E-1,3.652971387E-1,1.095433235E1
2.706407973E0,-2.851211429E-1,2.186895907E-1,1.095188904E1
2.708819900E0,-3.132209182E-1,7.208204269E-2,1.094700241E1
2.711231879E0,-3.400989771E-1,-7.941242307E-2,1.094333744E1
2.713643859E0,-3.596466482E-1,-2.260199636E-1,1.094089317E1
2.716055786E0,-3.755291104E-1,-3.714057803E-1,1.093722820E1
2.718467765E0,-3.877464235E-1,-5.119046569E-1,1.093356323E1
2.720879744E0,-3.926333487E-1,-6.475166678E-1,1.093356323E1
2.723291671E0,-3.950767815E-1,-7.806851864E-1,1.093111992E1
2.725703650E0,-3.950767815E-1,-9.053016305E-1,1.092989826E1
2.728115629E0,-3.865246773E-1,-1.025031090E0,1.092989826E1
2.730527609E0,-3.755291104E-1,-1.141095400E0,1.093234158E1
2.732939536E0,-3.596466482E-1,-1.252272844E0,1.093111992E1
2.735351515E0,-3.388772309E-1,-1.358563304E0,1.093234158E1
2.737763494E0,-3.144426346E-1,-1.455079913E0,1.093356323E1
2.740175421E0,-2.851211429E-1,-1.539379239E0,1.093478489E1
2.742587400E0,-2.509126961E-1,-1.620013356E0,1.093600655E1
2.744999379E0,-2.130390853E-1,-1.687208533E0,1.093844986E1
2.747411307E0,-1.751654744E-1,-1.736077666E0,1.094089317E1
2.749823286E0,-1.372918636E-1,-1.760512352E0,1.094211578E1
2.752235265E0,-9.697478265E-2,-1.761734009E0,1.094211578E1
2.754647192E0,-5.665770918E-2,-1.748294950E0,1.094211578E1
2.757059171E0,-2.000582218E-2,-1.728747368E0,1.094333744E1
2.759471150E0,1.420260593E-2,-1.690873742E0,1.093967152E1
2.761883129E0,4.963276163E-2,-1.626121998E0,1.093844986E1
2.764295057E0,8.384118974E-2,-1.554039955E0,1.093600655E1
2.766707036E0,1.143844277E-1,-1.481957912E0,1.093356323E1
2.769119015E0,1.437059343E-1,-1.409875870E0,1.093111992E1
2.771530942E0,1.693622619E-1,-1.330463529E0,1.093111992E1
2.773942921E0,1.913533956E-1,-1.233946800E0,1.092989826E1
2.776354900E0,2.121227980E-1,-1.111773849E0,1.092378902E1
2.778766827E0,2.280052751E-1,-9.798271060E-1,1.092134571E1
2.781178807E0,2.414443046E-1,-8.368847370E-1,1.091890240E1
2.783590786E0,2.475529462E-1,-6.914989352E-1,1.091401577E1
2.786002713E0,2.451094985E-1,-5.387827158E-1,1.091157246E1
2.788414692E0,2.390008420E-1,-3.836230934E-1,1.090912819E1
2.790826671E0,2.280052751E-1,-2.260199636E-1,1.090546322E1
2.793238650E0,2.157879770E-1,-6.475166976E-2,1.090424156E1
2.795650577E0,1.962403059E-1,9.407317638E-2,1.090179825E1
2.798062557E0,1.705839932E-1,2.443459183E-1,1.090057659E1
2.800474536E0,1.375972927E-1,3.897317350E-1,1.089935493E1
2.802886463E0,9.850194305E-2,5.314523578E-1,1.089813328E1
2.805298442E0,5.207622424E-2,6.597339511E-1,1.089935493E1
2.807710421E0,1.985310577E-3,7.745765448E-1,1.090057659E1
2.810122348E0,-5.543597788E-2,8.723149300E-1,1.090057659E1
2.812534327E0,-1.153007299E-1,9.553925395E-1,1.090424156E1
2.814946307E0,-1.727220118E-1,1.028696299E0,1.090424156E1
2.817358234E0,-2.325867712E-1,1.089782715E0,1.090546322E1
2.819770213E0,-2.948949635E-1,1.138651967E0,1.090668488E1
2.822182192E0,-3.572031856E-1,1.181412458E0,1.090668488E1
2.824594171E0,-4.207331240E-1,1.215620875E0,1.090668488E1
2.827006098E0,-4.854847789E-1,1.243720651E0,1.090790653E1
2.829418077E0,-5.490147471E-1,1.264490128E0,1.090668488E1
2.831830057E0,-6.088794470E-1,1.270598769E0,1.090301991E1
2.834241984E0,-6.675224900E-1,1.251051068E0,1.090179825E1
2.836653963E0,-7.286089659E-1,1.204625368E0,1.089813328E1
2.839065942E0,-7.835868001E-1,1.154534459E0,1.089568996E1
2.841477921E0,-8.385646343E-1,1.093447924E0,1.089324665E1
2.843889848E0,-8.898772597E-1,1.025031090E0,1.088958073E1
2.846301827E0,-9.375247359E-1,9.395100474E-1,1.088713741E1
2.848713807E0,-9.827287197E-1,8.368847370E-1,1.088347244E1
2.851125734E0,-1.029154420E0,7.232639194E-1,1.087858582E1
2.853537713E0,-1.063362837E0,5.998691916E-1,1.087369823E1
2.855949692E0,-1.096349597E0,4.667007029E-1,1.087003326E1
2.858361619E0,-1.120784163E0,3.286452591E-1,1.086758995E1
2.860773598E0,-1.139110088E0,1.844811589E-1,1.086392498E1
2.863185577E0,-1.151327372E0,4.276053607E-2,1.086270332E1
2.865597504E0,-1.158657789E0,-1.062904745E-1,1.086148167E1
2.868009484E0,-1.158657789E0,-2.590066791E-1,1.086025906E1
2.870421463E0,-1.150105715E0,-4.153880477E-1,1.085903740E1
2.872833390E0,-1.133001447E0,-5.766563416E-1,1.085659409E1
2.875245369E0,-1.108566880E0,-7.379246354E-1,1.085659409E1
2.877657348E0,-1.074358463E0,-8.967494965E-1,1.085781574E1
2.880069327E0,-1.034041405E0,-1.048243999E0,1.086025906E1
2.882481254E0,-9.863939285E-1,-1.178969026E0,1.086148167E1
2.884893234E0,-9.363030195E-1,-1.292589903E0,1.086758995E1
2.887305213E0,-8.813251853E-1,-1.390328288E0,1.086758995E1
2.889717140E0,-8.177952170E-1,-1.484401464E0,1.087125492E1
2.892129119E0,-7.469348907E-1,-1.568700790E0,1.087614155E1
2.894541098E0,-6.724094152E-1,-1.635895848E0,1.087980747E1
2.896953025E0,-6.015490890E-1,-1.688430309E0,1.088347244E1
2.899365004E0,-5.258018374E-1,-1.733634233E0,1.088713741E1
2.901776984E0,-4.463894367E-1,-1.766620994E0,1.088835907E1
2.904188911E0,-3.657552898E-1,-1.788612127E0,1.088958073E1
2.906600890E0,-2.814559340E-1,-1.804494500E0,1.088958073E1
2.909012869E0,-1.922696829E-1,-1.814268351E0,1.089080238E1
2.911424848E0,-1.067486182E-1,-1.811824918E0,1.089080238E1
2.913836775E0,-2.122755162E-2,-1.792277217E0,1.089202404E1
2.916248754E0,6.185005978E-2,-1.756847143E0,1.089080238E1
2.918660734E0,1.461493969E-1,-1.699425817E0,1.088835907E1
2.921072661E0,2.267835438E-1,-1.620013356E0,1.088713741E1
2.923484640E0,3.025307953E-1,-1.518609881E0,1.088835907E1
2.925896619E0,3.770562708E-1,-1.402545571E0,1.088713741E1
2.928308546E0,4.466948807E-1,-1.279150844E0,1.088469410E1
2.930720525E0,5.090031028E-1,-1.148425817E0,1.088102913E1
2.933132504E0,5.676460862E-1,-1.011592031E0,1.087858582E1
2.935544432E0,6.201804876E-1,-8.759800792E-1,1.087736416E1
2.937956411E0,6.629409790E-1,-7.452550530E-1,1.087491989E1
2.940368390E0,7.008146048E-1,-6.157516837E-1,1.087369823E1
2.942780317E0,7.325795889E-1,-4.911352694E-1,1.087125492E1
2.945192296E0,7.570141554E-1,-3.652971387E-1,1.087125492E1
2.947604275E0,7.790052891E-1,-2.419024557E-1,1.087003326E1
2.950016254E0,7.985529900E-1,-1.111773923E-1,1.086881161E1
2.952428182E0,8.107702732E-1,2.687804960E-2,1.086758995E1
2.954840161E0,8.181006312E-1,1.783725172E-1,1.086758995E1
2.957252140E0,8.156571984E-1,3.359756172E-1,1.086758995E1
2.959664067E0,8.034399152E-1,4.862483740E-1,1.087125492E1
2.962076046E0,7.814487815E-1,6.206386089E-1,1.087125492E1
2.964488025E0,7.533490062E-1,7.281508446E-1,1.087247658E1
2.966899952E0,7.252492309E-1,8.112284541E-1,1.087491989E1
2.969311932E0,6.922625303E-1,8.845322132E-1,1.087491989E1
2.971723911E0,6.568323374E-1,9.529490471E-1,1.087491989E1
2.974135838E0,6.177369952E-1,1.009148598E0,1.087614155E1
2.976547817E0,5.774199367E-1,1.054352641E0,1.087614155E1
2.978959796E0,5.309942365E-1,1.102000117E0,1.087736416E1
2.981371775E0,4.845684767E-1,1.147204041E0,1.087614155E1
2.983783702E0,4.283689260E-1,1.182634234E0,1.087369823E1
2.986195682E0,3.733910918E-1,1.200960159E0,1.087369823E1
2.988607661E0,3.159697950E-1,1.198516726E0,1.087125492E1
2.991019588E0,2.536616027E-1,1.175303817E0,1.086758995E1
2.993431567E0,1.889099330E-1,1.144760609E0,1.086514664E1
2.995843546E0,1.241582632E-1,1.108108759E0,1.086148167E1
2.998255473E0,5.940660089E-2,1.060461283E0,1.085659409E1
3.000667452E0,-5.345067009E-3,1.003039956E0,1.085170746E1
3.003079432E0,-6.643154472E-2,9.309579134E-1,1.084682083E1
3.005491411E0,-1.262962967E-1,8.466585875E-1,1.084193325E1
3.007903338E0,-1.886045039E-1,7.476984859E-1,1.083704662E1
3.010315317E0,-2.484692484E-1,6.377428174E-1,1.083093834E1
3.012727244E0,-3.034470677E-1,5.229002237E-1,1.082605076E1
3.015139223E0,-3.572031856E-1,4.019490182E-1,1.081994247E1
3.017551202E0,-4.048506320E-1,2.748891413E-1,1.081383419E1
3.019963182E0,-4.512763619E-1,1.417206228E-1,1.081016827E1
3.022375109E0,-4.915934205E-1,7.330377586E-3,1.080528164E1
3.024787088E0,-5.306887627E-1,-1.282816082E-1,1.080039501E1
3.027199015E0,-5.636754632E-1,-2.614501119E-1,1.079550743E1
3.029610994E0,-5.905535221E-1,-3.921751976E-1,1.079306412E1
3.032022973E0,-6.125446558E-1,-5.229002237E-1,1.079062080E1
3.034434952E0,-6.272054315E-1,-6.524035931E-1,1.078939915E1
3.036846879E0,-6.382009983E-1,-7.770199776E-1,1.078817749E1
3.039258859E0,-6.479747891E-1,-8.955277801E-1,1.078695583E1
3.041670838E0,-6.491965652E-1,-1.015257239E0,1.078939915E1
3.044082765E0,-6.443096399E-1,-1.127656341E0,1.078939915E1
3.046494744E0,-6.369792223E-1,-1.232725143E0,1.078939915E1
3.048906723E0,-6.223185062E-1,-1.325576544E0,1.078939915E1
3.051318702E0,-6.015490890E-1,-1.414762855E0,1.079306412E1
3.053730629E0,-5.771145225E-1,-1.497840405E0,1.079428577E1
3.056142609E0,-5.514581800E-1,-1.568700790E0,1.079672909E1
3.058554536E0,-5.245801210E-1,-1.613904715E0,1.079917336E1
3.060966515E0,-4.964803457E-1,-1.644448042E0,1.080161667E1
3.063378494E0,-4.610501826E-1,-1.657886982E0,1.080039501E1
3.065790473E0,-4.268417656E-1,-1.659108758E0,1.080283833E1
3.068202400E0,-3.853029609E-1,-1.644448042E0,1.080161667E1
3.070614379E0,-3.449858725E-1,-1.621235132E0,1.080161667E1
3.073026359E0,-3.034470677E-1,-1.579696298E0,1.080039501E1
3.075438338E0,-2.643517256E-1,-1.521053314E0,1.079917336E1
3.077850265E0,-2.301433086E-1,-1.453858137E0,1.079795170E1
3.080262244E0,-1.947131455E-1,-1.368337154E0,1.079672909E1
3.082674223E0,-1.641699076E-1,-1.264490128E0,1.079550743E1
3.085086150E0,-1.336266696E-1,-1.147204041E0,1.079306412E1
3.087498129E0,-1.055268943E-1,-1.028696299E0,1.079184246E1
3.089910109E0,-8.109229803E-2,-9.199623466E-1,1.078817749E1
3.092322036E0,-6.520981342E-2,-8.173370957E-1,1.078817749E1
3.094733963E0,-5.543597788E-2,-7.073814273E-1,1.078817749E1
3.097145994E0,-5.299251899E-2,-5.900954008E-1,1.078817749E1
3.099557921E0,-5.177079141E-2,-4.752528071E-1,1.078939915E1
3.101969900E0,-5.177079141E-2,-3.567450345E-1,1.078939915E1
3.104381879E0,-5.421425030E-2,-2.370155305E-1,1.078817749E1
3.106793807E0,-5.910116807E-2,-1.185077652E-1,1.078817749E1
3.109205786E0,-6.520981342E-2,1.221729559E-3,1.078817749E1
3.111617765E0,-7.376192510E-2,1.209512278E-1,1.078695583E1
3.114029692E0,-8.720094711E-2,2.431241870E-1,1.078817749E1
3.116441671E0,-1.006399691E-1,3.616319597E-1,1.078817749E1
3.118853650E0,-1.153007299E-1,4.740310609E-1,1.078817749E1
3.121265629E0,-1.336266696E-1,5.790998340E-1,1.078695583E1
3.123677557E0,-1.543960720E-1,6.719512343E-1,1.078573418E1
3.126089536E0,-1.788306683E-1,7.599157691E-1,1.078695583E1
3.128501515E0,-2.069304436E-1,8.405499458E-1,1.078573418E1
3.130913442E0,-2.386954129E-1,9.175189137E-1,1.078573418E1
3.133325421E0,-2.753472924E-1,9.847140312E-1,1.078695583E1
3.135737400E0,-3.132209182E-1,1.043357015E0,1.078573418E1
3.138149327E0,-3.523162603E-1,1.092226267E0,1.078695583E1
3.140561307E0,-3.901898861E-1,1.125212908E0,1.078573418E1
3.142973286E0,-4.305069447E-1,1.141095400E0,1.078329086E1
3.145385213E0,-4.708240330E-1,1.143538833E0,1.078451252E1
3.147797192E0,-5.123628378E-1,1.123991251E0,1.078206921E1
3.150209171E0,-5.490147471E-1,1.091004491E0,1.077962494E1
3.152621150E0,-5.868883133E-1,1.051909208E0,1.077595997E1
3.155033077E0,-6.210967898E-1,1.001818180E0,1.077351665E1
3.157445057E0,-6.516399980E-1,9.395100474E-1,1.077107334E1
3.159857036E0,-6.821832657E-1,8.637627959E-1,1.076985168E1
3.162268963E0,-7.102830410E-1,7.721330523E-1,1.076496410E1
3.164680942E0,-7.359393239E-1,6.707295179E-1,1.076374245E1
3.167092921E0,-7.579304576E-1,5.607738495E-1,1.075885582E1
3.169504848E0,-7.762564421E-1,4.422661066E-1,1.075519085E1
3.171916827E0,-7.909171581E-1,3.225366175E-1,1.075030422E1
3.174328807E0,-7.970257998E-1,1.979201883E-1,1.074908257E1
3.176740682E0,-7.982475758E-1,6.719512492E-2,1.074663830E1
3.179152713E0,-7.933606505E-1,-7.086031139E-2,1.074785995E1
3.181564692E0,-7.835868001E-1,-2.101374865E-1,1.074541664E1
3.183976671E0,-7.689260244E-1,-3.494146466E-1,1.074297333E1
3.186388598E0,-7.469348907E-1,-4.850266278E-1,1.074297333E1
3.188800577E0,-7.225003242E-1,-6.181951761E-1,1.074297333E1
3.191212557E0,-6.944005489E-1,-7.452550530E-1,1.074541664E1
3.193624432E0,-6.565269232E-1,-8.637627959E-1,1.075030422E1
3.196036463E0,-6.174315810E-1,-9.834923148E-1,1.075030422E1
3.198448442E0,-5.697841048E-1,-1.095891356E0,1.075274754E1
3.200860369E0,-5.221366882E-1,-1.204625368E0,1.075641251E1
3.203272348E0,-4.683805704E-1,-1.313359261E0,1.075885582E1
3.205684327E0,-4.109592736E-1,-1.409875870E0,1.076129913E1
3.208096254E0,-3.498727977E-1,-1.495396972E0,1.076496410E1
3.210508234E0,-2.851211429E-1,-1.569922447E0,1.076863003E1
3.212920213E0,-2.154825479E-1,-1.631008983E0,1.077351665E1
3.215332140E0,-1.470656991E-1,-1.678656459E0,1.077473831E1
3.217744119E0,-7.376192510E-2,-1.711643100E0,1.077718163E1
3.220156098E0,-1.679878100E-3,-1.738521218E0,1.077962494E1
3.222568025E0,7.284562290E-2,-1.754403591E0,1.078329086E1
3.224980004E0,1.485928595E-1,-1.759290576E0,1.078451252E1
3.227391984E0,2.231183648E-1,-1.750738502E0,1.078329086E1
3.229803963E0,2.988655865E-1,-1.715308309E0,1.078329086E1
3.232215890E0,3.721693754E-1,-1.660330415E0,1.078329086E1
3.234627869E0,4.405862093E-1,-1.594357133E0,1.078206921E1
3.237039848E0,5.053378940E-1,-1.513722897E0,1.078329086E1
3.239451775E0,5.688678026E-1,-1.420871496E0,1.078084660E1
3.241863754E0,6.299542785E-1,-1.321911335E0,1.077840328E1
3.244275734E0,6.849321127E-1,-1.224173069E0,1.077595997E1
3.246687661E0,7.362447977E-1,-1.115439057E0,1.077473831E1
3.249099640E0,7.838922143E-1,-9.981530309E-1,1.077107334E1
3.251511619E0,8.193224072E-1,-8.686497211E-1,1.076740837E1
3.253923546E0,8.498656154E-1,-7.110465765E-1,1.076496410E1
3.256335525E0,8.743002415E-1,-5.412262082E-1,1.076618671E1
3.258747504E0,8.889609575E-1,-3.750709891E-1,1.076252079E1
3.261159484E0,8.950695992E-1,-2.076940238E-1,1.075885582E1
3.263571411E0,8.901826739E-1,-3.298669681E-2,1.075763416E1
3.265983390E0,8.767436743E-1,1.404989064E-1,1.075641251E1
3.268395369E0,8.584177494E-1,2.956585586E-1,1.075519085E1
3.270807296E0,8.352048993E-1,4.227184355E-1,1.075519085E1
3.273219275E0,8.071050644E-1,5.326740742E-1,1.075519085E1
3.275631254E0,7.728966475E-1,6.401863098E-1,1.075641251E1
3.278043182E0,7.301361561E-1,7.452550530E-1,1.075641251E1
3.280455161E0,6.800451875E-1,8.503237963E-1,1.075519085E1
3.282867140E0,6.275108457E-1,9.553925395E-1,1.075519085E1
3.285279119E0,5.676460862E-1,1.060461283E0,1.075274754E1
3.287691046E0,5.053378940E-1,1.153312683E0,1.075274754E1
3.290103025E0,4.356993139E-1,1.243720651E0,1.074908257E1
3.292515004E0,3.611738086E-1,1.325576544E0,1.074663830E1
3.294926932E0,2.842048407E-1,1.385441303E0,1.074419498E1
3.297338911E0,2.035706937E-1,1.408654213E0,1.074175167E1
3.299750890E0,1.180496216E-1,1.400102019E0,1.073808670E1
3.302162817E0,3.008509055E-2,1.367115378E0,1.073320007E1
3.304574744E0,-5.910116807E-2,1.310915828E0,1.072953415E1
3.306986775E0,-1.470656991E-1,1.248607635E0,1.072342587E1
3.309398702E0,-2.325867712E-1,1.175303817E0,1.071731758E1
3.311810682E0,-3.144426346E-1,1.099556565E0,1.071243000E1
3.314222661E0,-3.914116025E-1,1.021365881E0,1.070632172E1
3.316634588E0,-4.610501826E-1,9.407317638E-1,1.070021248E1
3.319046567E0,-5.294670463E-1,8.491020203E-1,1.069410419E1
3.321458546E0,-5.942187309E-1,7.513636947E-1,1.068921757E1
3.323870525E0,-6.540834904E-1,6.352993846E-1,1.068310833E1
3.326282452E0,-7.139481902E-1,5.021308661E-1,1.067822170E1
3.328694432E0,-7.677043080E-1,3.555232882E-1,1.067333508E1
3.331106411E0,-8.165735006E-1,2.015853822E-1,1.066967010E1
3.333518338E0,-8.581122756E-1,4.031707719E-2,1.066600418E1
3.335930317E0,-8.959859014E-1,-1.282816082E-1,1.066356087E1
3.338342296E0,-9.265291691E-1,-2.968802750E-1,1.066111755E1
3.340754223E0,-9.485203028E-1,-4.544833899E-1,1.065867424E1
3.343166202E0,-9.619593024E-1,-6.035344005E-1,1.065867424E1
3.345578182E0,-9.705114365E-1,-7.489202023E-1,1.065989590E1
3.347990109E0,-9.692896605E-1,-8.845322132E-1,1.066111755E1
3.350402088E0,-9.631810188E-1,-1.014035583E0,1.066233921E1
3.352814067E0,-9.534072280E-1,-1.134986758E0,1.066356087E1
3.355225994E0,-9.387464523E-1,-1.240055561E0,1.066600418E1
3.357637973E0,-9.167553186E-1,-1.323133111E0,1.066722584E1
3.360049952E0,-8.910989761E-1,-1.404989004E0,1.067211342E1
3.362461879E0,-8.629992008E-1,-1.491731763E0,1.067455673E1
3.364873859E0,-8.300125003E-1,-1.582139730E0,1.067822170E1
3.367285838E0,-7.896954417E-1,-1.653000116E0,1.068066502E1
3.369697817E0,-7.432697415E-1,-1.684765100E0,1.068310833E1
3.372109744E0,-6.956222653E-1,-1.704312682E0,1.068555260E1
3.374521723E0,-6.467530727E-1,-1.715308309E0,1.068555260E1
3.376933702E0,-5.991056561E-1,-1.720195174E0,1.068799591E1
3.379345629E0,-5.490147471E-1,-1.714086533E0,1.068799591E1
3.381757609E0,-4.977020919E-1,-1.687208533E0,1.068799591E1
3.384169588E0,-4.439459741E-1,-1.644448042E0,1.068677425E1
3.386581515E0,-3.889681399E-1,-1.589470148E0,1.068677425E1
3.388993494E0,-3.352120519E-1,-1.517388105E0,1.068555260E1
3.391405473E0,-2.790125012E-1,-1.436753988E0,1.068432999E1
3.393817400E0,-2.289215773E-1,-1.347567677E0,1.068188667E1
3.396229379E0,-1.837175786E-1,-1.249829292E0,1.068066502E1
3.398641359E0,-1.397353113E-1,-1.141095400E0,1.067577839E1
3.401053338E0,-1.006399691E-1,-1.021365881E0,1.067089176E1
3.403465265E0,-6.520981342E-2,-8.894191384E-1,1.066967010E1
3.405877244E0,-3.100138716E-2,-7.476984859E-1,1.066722584E1
3.408289223E0,-4.581485991E-4,-6.047561169E-1,1.066478252E1
3.410701150E0,2.153298259E-2,-4.630354941E-1,1.066233921E1
3.413113129E0,4.108065739E-2,-3.225366175E-1,1.065867424E1
3.415525109E0,5.451968312E-2,-1.832594275E-1,1.065867424E1
3.417937036E0,6.551524997E-2,-4.764745384E-2,1.065867424E1
3.420349015E0,7.040216774E-2,8.674279600E-2,1.065745258E1
3.422760994E0,7.406735420E-2,2.211330533E-1,1.065623093E1
3.425172921E0,7.040216774E-2,3.494146466E-1,1.065500927E1
3.427584900E0,6.062832847E-2,4.703658819E-1,1.065623093E1
3.429996879E0,4.841103405E-2,5.790998340E-1,1.065623093E1
3.432408807E0,3.375028074E-2,6.853902936E-1,1.065745258E1
3.434820734E0,1.420260593E-2,7.843503952E-1,1.065867424E1
3.437232765E0,-9.010255337E-3,8.723149300E-1,1.065745258E1
3.439644744E0,-3.588830680E-2,9.431751966E-1,1.065867424E1
3.442056671E0,-6.032289565E-2,1.005483389E0,1.065745258E1
3.444468650E0,-9.086613357E-2,1.067791581E0,1.065867424E1
3.446880629E0,-1.250745654E-1,1.125212908E0,1.065867424E1
3.449292557E0,-1.580612659E-1,1.164308310E0,1.065867424E1
3.451704536E0,-1.898262352E-1,1.185077667E0,1.065745258E1
3.454116515E0,-2.240346521E-1,1.193629742E0,1.065378761E1
3.456528442E0,-2.594648004E-1,1.187521100E0,1.065500927E1
3.458940421E0,-2.924515009E-1,1.161864758E0,1.065256500E1
3.461352400E0,-3.242164850E-1,1.110552192E0,1.065012169E1
3.463764327E0,-3.559814394E-1,1.039691806E0,1.064767838E1
3.466176307E0,-3.877464235E-1,9.602794051E-1,1.064401340E1
3.468588286E0,-4.182896614E-1,8.747583628E-1,1.064279175E1
3.471000213E0,-4.439459741E-1,7.855721116E-1,1.064034843E1
3.473412192E0,-4.696022868E-1,6.902772188E-1,1.063790512E1
3.475824171E0,-4.891499579E-1,5.864301920E-1,1.063423920E1
3.478236150E0,-5.086976290E-1,4.740310609E-1,1.063057423E1
3.480648077E0,-5.221366882E-1,3.494146466E-1,1.062813091E1
3.483060057E0,-5.331322551E-1,2.150243968E-1,1.062690926E1
3.485472036E0,-5.404626131E-1,7.330377400E-2,1.062324429E1
3.487883963E0,-5.429060459E-1,-7.696896046E-2,1.062202263E1
3.490295942E0,-5.392408967E-1,-2.309068888E-1,1.061957836E1
3.492707921E0,-5.306887627E-1,-3.885099888E-1,1.061835670E1
3.495119848E0,-5.172497630E-1,-5.424479246E-1,1.061835670E1
3.497531827E0,-4.977020919E-1,-6.927206516E-1,1.061835670E1
3.499943807E0,-4.720457494E-1,-8.344413042E-1,1.061835670E1
3.502355734E0,-4.402807951E-1,-9.688315392E-1,1.061835670E1
3.504767713E0,-4.024071693E-1,-1.089782715E0,1.062202263E1
3.507179692E0,-3.596466482E-1,-1.200960159E0,1.062568760E1
3.509591619E0,-3.119991720E-1,-1.299920201E0,1.062813091E1
3.512003546E0,-2.619082630E-1,-1.387884736E0,1.063179588E1
3.514415577E0,-2.118173689E-1,-1.469740629E0,1.063546085E1
3.516827557E0,-1.605047137E-1,-1.540601015E0,1.063790512E1
3.519239484E0,-1.055268943E-1,-1.604130864E0,1.064279175E1
3.521651463E0,-5.054906011E-2,-1.656665325E0,1.064279175E1
3.524063390E0,9.315688163E-3,-1.701869249E0,1.064401340E1
3.526475369E0,7.162389904E-2,-1.738521218E0,1.064523506E1
3.528887348E0,1.339320987E-1,-1.761734009E0,1.064523506E1
3.531299327E0,1.974620372E-1,-1.762955785E0,1.064645672E1
3.533711254E0,2.585485280E-1,-1.742186308E0,1.064767838E1
3.536123234E0,3.196350038E-1,-1.705534458E0,1.064645672E1
3.538535213E0,3.758345544E-1,-1.653000116E0,1.064401340E1
3.540947140E0,4.332558513E-1,-1.579696298E0,1.064401340E1
3.543359119E0,4.857902229E-1,-1.492953539E0,1.064279175E1
3.545771098E0,5.322159529E-1,-1.398880363E0,1.063912678E1
3.548183077E0,5.725330114E-1,-1.296255112E0,1.063546085E1
3.550595004E0,6.091849208E-1,-1.187521100E0,1.063423920E1
3.553006984E0,6.409498453E-1,-1.067791581E0,1.063179588E1
3.555418911E0,6.702713966E-1,-9.419534802E-1,1.062813091E1
3.557830890E0,6.910407543E-1,-8.136718869E-1,1.062568760E1
3.560242869E0,7.069232464E-1,-6.927206516E-1,1.062446594E1
3.562654848E0,7.191405892E-1,-5.705476999E-1,1.062080002E1
3.565066775E0,7.252492309E-1,-4.386008978E-1,1.061713505E1
3.567478754E0,7.252492309E-1,-2.956585586E-1,1.061591339E1
3.569890734E0,7.191405892E-1,-1.368337125E-1,1.061347008E1
3.572302661E0,7.069232464E-1,2.687804960E-2,1.061102676E1
3.574714640E0,6.910407543E-1,1.808159798E-1,1.060980511E1
3.577126619E0,6.653844714E-1,3.213148713E-1,1.061102676E1
3.579538546E0,6.287325621E-1,4.508182108E-1,1.061102676E1
3.581950525E0,5.884155035E-1,5.766563416E-1,1.060980511E1
3.584362452E0,5.419898033E-1,6.963858604E-1,1.061102676E1
3.586774432E0,4.882336855E-1,8.038980365E-1,1.060980511E1
3.589186411E0,4.320341051E-1,8.967494965E-1,1.060980511E1
3.591598390E0,3.709476292E-1,9.712749720E-1,1.061224842E1
3.594010317E0,3.110828996E-1,1.037248373E0,1.061469173E1
3.596422296E0,2.475529462E-1,1.099556565E0,1.061347008E1
3.598834275E0,1.779143661E-1,1.160643101E0,1.061347008E1
3.601246254E0,1.082757786E-1,1.214399219E0,1.061224842E1
3.603658182E0,3.985892609E-2,1.257159710E0,1.061102676E1
3.606070161E0,-3.100138716E-2,1.286481261E0,1.060858345E1
3.608482140E0,-1.079703495E-1,1.299920201E0,1.060491848E1
3.610894067E0,-1.873827726E-1,1.301141977E0,1.060247421E1
3.613306046E0,-2.643517256E-1,1.287702918E0,1.060003090E1
3.615718025E0,-3.413206935E-1,1.268155336E0,1.059636593E1
3.618129952E0,-4.195113778E-1,1.232725143E0,1.059270096E1
3.620541932E0,-4.977020919E-1,1.170416951E0,1.058781338E1
3.622953911E0,-5.771145225E-1,1.089782715E0,1.058170509E1
3.625365890E0,-6.540834904E-1,9.957095981E-1,1.057681847E1
3.627777817E0,-7.249437571E-1,8.918625712E-1,1.056948757E1
3.630189796E0,-7.896954417E-1,7.843503952E-1,1.056704426E1
3.632601775E0,-8.495602012E-1,6.609556675E-1,1.056093597E1
3.635013702E0,-9.045380354E-1,5.180133581E-1,1.055727100E1
3.637425682E0,-9.546289444E-1,3.640754223E-1,1.055360508E1
3.639837661E0,-9.973894954E-1,2.199113220E-1,1.054994011E1
3.642249588E0,-1.034041405E0,8.063415438E-2,1.054627514E1
3.644661567E0,-1.059697628E0,-5.864302069E-2,1.054383183E1
3.647073546E0,-1.081688762E0,-2.064722925E-1,1.054016590E1
3.649485473E0,-1.096349597E0,-3.579667509E-1,1.054138851E1
3.651897452E0,-1.106123447E0,-5.119046569E-1,1.054138851E1
3.654309432E0,-1.107345104E0,-6.597339511E-1,1.054261017E1
3.656721359E0,-1.101236463E0,-8.038980365E-1,1.054261017E1
3.659133338E0,-1.086575747E0,-9.419534802E-1,1.054383183E1
3.661545317E0,-1.068249822E0,-1.073900223E0,1.054749680E1
3.663957244E0,-1.045036912E0,-1.203403592E0,1.054871845E1
3.666369223E0,-1.016937137E0,-1.321911335E0,1.054994011E1
3.668781202E0,-9.863939285E-1,-1.436753988E0,1.055360508E1
3.671193182E0,-9.509637356E-1,-1.547931314E0,1.055482674E1
3.673605109E0,-9.069814682E-1,-1.637117624E0,1.055604839E1
3.676017088E0,-8.532254100E-1,-1.692095399E0,1.055727100E1
3.678429067E0,-7.958040833E-1,-1.711643100E0,1.056215763E1
3.680840994E0,-7.359393239E-1,-1.714086533E0,1.056460094E1
3.683252973E0,-6.772963405E-1,-1.710421324E0,1.056704426E1
3.685664952E0,-6.174315810E-1,-1.701869249E0,1.056582260E1
3.688076879E0,-5.575668216E-1,-1.688430309E0,1.056704426E1
3.690488859E0,-4.964803457E-1,-1.671326041E0,1.056948757E1
3.692900838E0,-4.366155863E-1,-1.645669699E0,1.056948757E1
3.695312765E0,-3.730856776E-1,-1.609017849E0,1.056704426E1
3.697724744E0,-3.119991720E-1,-1.563813806E0,1.056704426E1
3.700136723E0,-2.509126961E-1,-1.505170822E0,1.056582260E1
3.702548650E0,-1.910479665E-1,-1.429423571E0,1.056215763E1
3.704960629E0,-1.336266696E-1,-1.336572170E0,1.056215763E1
3.707372609E0,-7.987056673E-2,-1.227838159E0,1.056215763E1
3.709784536E0,-2.733619884E-2,-1.108108759E0,1.055727100E1
3.712196515E0,2.275471389E-2,-9.798271060E-1,1.055604839E1
3.714608494E0,7.284562290E-2,-8.491020203E-1,1.055360508E1
3.717020473E0,1.143844277E-1,-7.147117853E-1,1.055238342E1
3.719432400E0,1.498145908E-1,-5.790998340E-1,1.054871845E1
3.721844379E0,1.803578287E-1,-4.386008978E-1,1.054749680E1
3.724256359E0,2.072358727E-1,-2.993237376E-1,1.054627514E1
3.726668286E0,2.267835438E-1,-1.612683088E-1,1.054383183E1
3.729080265E0,2.438877672E-1,-2.443459071E-2,1.054505348E1
3.731492244E0,2.561050653E-1,1.062904745E-1,1.054505348E1
3.733904171E0,2.622137070E-1,2.357937992E-1,1.054505348E1
3.736316150E0,2.671006322E-1,3.604102135E-1,1.054261017E1
3.738728129E0,2.658788860E-1,4.825831652E-1,1.054383183E1
3.741140057E0,2.573267817E-1,5.974257588E-1,1.054505348E1
3.743552036E0,2.390008420E-1,7.024945021E-1,1.054871845E1
3.745964015E0,2.170097083E-1,7.929024696E-1,1.054871845E1
3.748375994E0,1.950185746E-1,8.674280047E-1,1.054871845E1
3.750787921E0,1.718057245E-1,9.272927642E-1,1.054871845E1
3.753199900E0,1.461493969E-1,9.810488224E-1,1.054871845E1
3.755611879E0,1.204930767E-1,1.026252866E0,1.054994011E1
3.758023807E0,9.605848789E-2,1.058017850E0,1.055238342E1
3.760435786E0,6.551524997E-2,1.082452416E0,1.055238342E1
3.762847765E0,3.619373962E-2,1.091004491E0,1.055116177E1
3.765259692E0,4.428769462E-3,1.086117625E0,1.054749680E1
3.767671671E0,-3.100138716E-2,1.071456790E0,1.054749680E1
3.770083650E0,-6.765327603E-2,1.040913582E0,1.054383183E1
3.772495577E0,-1.006399691E-1,9.993748069E-1,1.054383183E1
3.774907557E0,-1.360701323E-1,9.456186891E-1,1.054261017E1
3.777319536E0,-1.678351015E-1,8.808670044E-1,1.053894424E1
3.779731463E0,-1.983783394E-1,8.087849617E-1,1.053772259E1
3.782143442E0,-2.264781147E-1,7.244856358E-1,1.053405762E1
3.784555421E0,-2.533561587E-1,6.267472506E-1,1.052917099E1
3.786967348E0,-2.814559340E-1,5.216785073E-1,1.052672768E1
3.789379327E0,-3.034470677E-1,4.141663313E-1,1.052428341E1
3.791791307E0,-3.217730224E-1,3.029889166E-1,1.052184010E1
3.794203286E0,-3.376555145E-1,1.832594275E-1,1.051939678E1
3.796615109E0,-3.486510813E-1,5.864302069E-2,1.051573181E1
3.799027192E0,-3.547597229E-1,-7.574722916E-2,1.051328850E1
3.801439171E0,-3.572031856E-1,-2.174678594E-1,1.051206684E1
3.803851098E0,-3.547597229E-1,-3.543015718E-1,1.051206684E1
3.806263077E0,-3.486510813E-1,-4.899135530E-1,1.051206684E1
3.808675057E0,-3.376555145E-1,-6.206386089E-1,1.051206684E1
3.811086984E0,-3.229947388E-1,-7.428115606E-1,1.051206684E1
3.813498911E0,-2.985601723E-1,-8.588758707E-1,1.051328850E1
3.815910942E0,-2.753472924E-1,-9.700532556E-1,1.051451015E1
3.818322869E0,-2.460257858E-1,-1.076343775E0,1.051695347E1
3.820734848E0,-2.167042792E-1,-1.174082160E0,1.051939678E1
3.823146827E0,-1.812741160E-1,-1.264490128E0,1.052184010E1
3.825558754E0,-1.434005052E-1,-1.347567677E0,1.052428341E1
3.827970734E0,-1.043051630E-1,-1.418428063E0,1.052428341E1
3.830382713E0,-6.765327603E-2,-1.483179688E0,1.052550602E1
3.832794692E0,-2.855792828E-2,-1.534492373E0,1.052550602E1
3.835206619E0,1.298087649E-2,-1.567479014E0,1.052794933E1
3.837618598E0,5.696314201E-2,-1.576031089E0,1.052917099E1
3.840030577E0,1.009454057E-1,-1.578474641E0,1.052917099E1
3.842442504E0,1.461493969E-1,-1.573587656E0,1.053039265E1
3.844854484E0,1.901316643E-1,-1.562592149E0,1.052794933E1
3.847266463E0,2.328922004E-1,-1.544266105E0,1.052917099E1
3.849678390E0,2.744309902E-1,-1.518609881E0,1.052794933E1
3.852090369E0,3.123046160E-1,-1.473405838E0,1.052550602E1
3.854502348E0,3.501782417E-1,-1.403767228E0,1.052428341E1
3.856914275E0,3.880518377E-1,-1.306028843E0,1.052184010E1
3.859326254E0,4.222602844E-1,-1.194851518E0,1.051817513E1
3.861738234E0,4.515817761E-1,-1.077565432E0,1.051451015E1
3.864150161E0,4.735729098E-1,-9.553925395E-1,1.051206684E1
3.866562140E0,4.931205809E-1,-8.332195878E-1,1.050840092E1
3.868974119E0,5.053378940E-1,-7.159335017E-1,1.050595760E1
3.871386098E0,5.114465356E-1,-5.937605500E-1,1.050351429E1
3.873798025E0,5.114465356E-1,-4.630354941E-1,1.050229263E1
3.876210004E0,5.053378940E-1,-3.225366175E-1,1.049862766E1
3.878621984E0,4.943423271E-1,-1.685986817E-1,1.049740601E1
3.881033911E0,4.796815813E-1,-1.221729536E-2,1.049496269E1
3.883445890E0,4.589121640E-1,1.368337125E-1,1.049251842E1
3.885857869E0,4.308123887E-1,2.736674249E-1,1.049007511E1
3.888269796E0,3.978256881E-1,4.007273018E-1,1.049007511E1
3.890681775E0,3.562868834E-1,5.204567909E-1,1.049007511E1
3.893093754E0,3.098611534E-1,6.365211010E-1,1.048885345E1
3.895505682E0,2.585485280E-1,7.476984859E-1,1.048885345E1
3.897917609E0,2.047924101E-1,8.527672291E-1,1.048885345E1
3.900329640E0,1.412624866E-1,9.541707635E-1,1.048518848E1
3.902741567E0,7.773254067E-2,1.043357015E0,1.048641014E1
3.905153546E0,8.093958721E-3,1.114217401E0,1.048396683E1
3.907565525E0,-6.276635826E-2,1.170416951E0,1.048396683E1
3.909977452E0,-1.336266696E-1,1.205847025E0,1.048274517E1
3.912389432E0,-2.057087123E-1,1.226616502E0,1.048152351E1
3.914801411E0,-2.838993967E-1,1.231503367E0,1.048030186E1
3.917213338E0,-3.572031856E-1,1.221729517E0,1.047785854E1
3.919625317E0,-4.280634820E-1,1.203403592E0,1.047541428E1
3.922037296E0,-4.989238083E-1,1.164308310E0,1.047419262E1
3.924449275E0,-5.697841048E-1,1.112995625E0,1.047052765E1
3.926861202E0,-6.369792223E-1,1.064126492E0,1.046441936E1
3.929273182E0,-7.017309070E-1,1.016479015E0,1.046197605E1
3.931685161E0,-7.615956664E-1,9.602794051E-1,1.045831013E1
3.934097036E0,-8.226821423E-1,8.772017956E-1,1.045342350E1
3.936509067E0,-8.813251853E-1,7.635809779E-1,1.044975853E1
3.938921046E0,-9.338595271E-1,6.462949514E-1,1.044609356E1
3.941332973E0,-9.839504361E-1,5.216785073E-1,1.044364929E1
3.943744952E0,-1.029154420E0,3.946186602E-1,1.043876266E1
3.946156932E0,-1.067028046E0,2.700022459E-1,1.043509769E1
3.948568859E0,-1.092684388E0,1.404989064E-1,1.043265438E1
3.950980838E0,-1.112232089E0,0.000000000E0,1.043143272E1
3.953392817E0,-1.126892805E0,-1.527161896E-1,1.042898941E1
3.955804796E0,-1.137888312E0,-3.176496923E-1,1.042776680E1
3.958216723E0,-1.143997073E0,-4.825831652E-1,1.042898941E1
3.960628702E0,-1.141553521E0,-6.438514590E-1,1.042776680E1
3.963040682E0,-1.130558014E0,-7.916807532E-1,1.042776680E1
3.965452609E0,-1.109788537E0,-9.297361970E-1,1.043021107E1
3.967864588E0,-1.082910538E0,-1.058017850E0,1.043143272E1
3.970276567E0,-1.049923897E0,-1.165529966E0,1.043387604E1
3.972688494E0,-1.008385062E0,-1.257159710E0,1.043754101E1
3.975100473E0,-9.607375860E-1,-1.337793827E0,1.044364929E1
3.977512452E0,-9.094249606E-1,-1.411097646E0,1.044487190E1
3.979924379E0,-8.520036340E-1,-1.486844897E0,1.044853687E1
3.982336359E0,-7.970257998E-1,-1.562592149E0,1.044975853E1
3.984748338E0,-7.408262491E-1,-1.629787207E0,1.045220184E1
3.987160265E0,-6.809614897E-1,-1.674991250E0,1.045586681E1
3.989572244E0,-6.149880886E-1,-1.689651966E0,1.045708847E1
3.991984223E0,-5.453495383E-1,-1.687208533E0,1.045586681E1
3.994396150E0,-4.732674956E-1,-1.672547817E0,1.045831013E1
3.996808129E0,-4.036289155E-1,-1.655443549E0,1.045953178E1
3.999220109E0,-3.364337683E-1,-1.622456908E0,1.045953178E1
4.001632036E0,-2.729038298E-1,-1.573587656E0,1.046075344E1
4.004044015E0,-2.069304436E-1,-1.513722897E0,1.045953178E1
4.006455994E0,-1.434005052E-1,-1.445306063E0,1.045831013E1
4.008867973E0,-8.109229803E-2,-1.373224020E0,1.045708847E1
4.011279900E0,-2.244928107E-2,-1.293811560E0,1.045586681E1
4.013691879E0,3.375028074E-2,-1.204625368E0,1.045464516E1
4.016103859E0,9.117157012E-2,-1.110552192E0,1.045220184E1
4.018515786E0,1.461493969E-1,-1.011592031E0,1.044853687E1
4.020927765E0,1.962403059E-1,-9.004147053E-1,1.044731522E1
4.023339744E0,2.426660359E-1,-7.806851864E-1,1.044487190E1
4.025751671E0,2.842048407E-1,-6.585122347E-1,1.044364929E1
4.028163598E0,3.196350038E-1,-5.363392830E-1,1.044242764E1
4.030575629E0,3.538434207E-1,-4.092794061E-1,1.043998432E1
4.032987557E0,3.819431961E-1,-2.858847082E-1,1.043754101E1
4.035399536E0,4.051560760E-1,-1.576031148E-1,1.043754101E1
4.037811515E0,4.222602844E-1,-2.932151034E-2,1.043509769E1
4.040223494E0,4.369210303E-1,9.529490769E-2,1.043754101E1
4.042635421E0,4.430296719E-1,2.101374865E-1,1.043509769E1
4.045047400E0,4.442514181E-1,3.164279461E-1,1.043509769E1
4.047459379E0,4.430296719E-1,4.178315103E-1,1.043631935E1
4.049871307E0,4.369210303E-1,5.167915821E-1,1.043509769E1
4.052283286E0,4.259254634E-1,6.108647585E-1,1.043631935E1
4.054695265E0,4.088212550E-1,7.000510097E-1,1.043876266E1
4.057107192E0,3.892735839E-1,7.757982612E-1,1.043876266E1
4.059519171E0,3.721693754E-1,8.381064534E-1,1.043876266E1
4.061931150E0,3.501782417E-1,8.991929293E-1,1.043876266E1
4.064343077E0,3.245218992E-1,9.566142559E-1,1.043998432E1
4.066755057E0,2.939786613E-1,1.000596523E0,1.043998432E1
4.069167036E0,2.658788860E-1,1.026252866E0,1.043998432E1
4.071578963E0,2.365573794E-1,1.044578791E0,1.043998432E1
4.073990942E0,2.035706937E-1,1.055574298E0,1.043876266E1
4.076402921E0,1.644753367E-1,1.054352641E0,1.043754101E1
4.078814848E0,1.241582632E-1,1.039691806E0,1.043631935E1
4.081226827E0,8.139773458E-2,1.009148598E0,1.043387604E1
4.083638807E0,3.863719851E-2,9.627228975E-1,1.043143272E1
4.086050734E0,-4.581485991E-4,9.004147053E-1,1.042898941E1
4.088462713E0,-3.955349326E-2,8.222240210E-1,1.042654514E1
4.090874640E0,-8.109229803E-2,7.318159938E-1,1.042288017E1
4.093286619E0,-1.189659163E-1,6.365211010E-1,1.041921520E1
4.095698598E0,-1.543960720E-1,5.375609994E-1,1.041432858E1
4.098110577E0,-1.861610413E-1,4.386008978E-1,1.041310692E1
4.100522557E0,-2.154825479E-1,3.359756172E-1,1.040821934E1
4.102934484E0,-2.411388755E-1,2.333503515E-1,1.040699768E1
4.105346463E0,-2.643517256E-1,1.258381456E-1,1.040333271E1
4.107758442E0,-2.838993967E-1,9.773836471E-3,1.040211105E1
4.110170369E0,-2.997818887E-1,-1.087339297E-1,1.039844608E1
4.112582348E0,-3.144426346E-1,-2.321286201E-1,1.039722443E1
4.114994327E0,-3.217730224E-1,-3.579667509E-1,1.039722443E1
4.117406254E0,-3.278816640E-1,-4.825831652E-1,1.039600182E1
4.119818234E0,-3.303251266E-1,-6.071996093E-1,1.039600182E1
4.122230213E0,-3.266599476E-1,-7.305942774E-1,1.039355850E1
4.124642140E0,-3.205513060E-1,-8.503237963E-1,1.039355850E1
4.127054119E0,-3.107774556E-1,-9.663881063E-1,1.039355850E1
4.129466098E0,-2.985601723E-1,-1.076343775E0,1.039233685E1
4.131878025E0,-2.826776803E-1,-1.181412458E0,1.039355850E1
4.134290004E0,-2.619082630E-1,-1.275485635E0,1.039478016E1
4.136701984E0,-2.374736816E-1,-1.357341528E0,1.039722443E1
4.139113963E0,-2.032652497E-1,-1.422093153E0,1.039722443E1
4.141525890E0,-1.678351015E-1,-1.470962405E0,1.039844608E1
4.143937869E0,-1.336266696E-1,-1.505170822E0,1.039966774E1
4.146349848E0,-9.941824526E-2,-1.524718523E0,1.040088940E1
4.148761775E0,-6.398808211E-2,-1.530827165E0,1.040088940E1
4.151173754E0,-2.977965772E-2,-1.527161956E0,1.040211105E1
4.153585734E0,5.650499370E-3,-1.513722897E0,1.040211105E1
4.155997661E0,4.108065739E-2,-1.480736256E0,1.039966774E1
4.158409640E0,7.284562290E-2,-1.433088779E0,1.039966774E1
4.160821619E0,1.021671370E-1,-1.372002244E0,1.039844608E1
4.163233546E0,1.302669197E-1,-1.302363753E0,1.039600182E1
4.165645525E0,1.559232324E-1,-1.227838159E0,1.039233685E1
4.168057504E0,1.791360974E-1,-1.137430191E0,1.039111519E1
4.170469484E0,1.986837685E-1,-1.037248373E0,1.038989353E1
4.172881411E0,2.157879770E-1,-9.309579134E-1,1.038622856E1
4.175293338E0,2.280052751E-1,-8.271108866E-1,1.038622856E1
4.177705369E0,2.390008420E-1,-7.232639194E-1,1.038500690E1
4.180117296E0,2.402225733E-1,-6.181951761E-1,1.038134193E1
4.182529275E0,2.402225733E-1,-5.057960153E-1,1.038011932E1
4.184941254E0,2.328922004E-1,-3.897317350E-1,1.038134193E1
4.187353182E0,2.218966335E-1,-2.663370371E-1,1.037889767E1
4.189765161E0,2.072358727E-1,-1.392771751E-1,1.037889767E1
4.192177140E0,1.901316643E-1,-1.588248461E-2,1.037889767E1
4.194589067E0,1.669187993E-1,1.087339297E-1,1.037645435E1
4.197001046E0,1.424842030E-1,2.296851575E-1,1.037645435E1
4.199413025E0,1.119409725E-1,3.433060050E-1,1.037645435E1
4.201824952E0,7.895427197E-2,4.508182108E-1,1.037645435E1
4.204236932E0,4.108065739E-2,5.534434915E-1,1.037767601E1
4.206648911E0,7.635809598E-4,6.511818767E-1,1.037645435E1
4.209060838E0,-4.077522457E-2,7.501419783E-1,1.037767601E1
4.211472817E0,-8.720094711E-2,8.454368711E-1,1.037889767E1
4.213884796E0,-1.336266696E-1,9.370665550E-1,1.037767601E1
4.216296775E0,-1.861610413E-1,1.012813807E0,1.037645435E1
4.218708702E0,-2.411388755E-1,1.070235133E0,1.037645435E1
4.221120682E0,-3.010036349E-1,1.105665207E0,1.037645435E1
4.223532609E0,-3.620901108E-1,1.132543325E0,1.037523270E1
4.225944588E0,-4.256200492E-1,1.154534459E0,1.037278938E1
4.228356567E0,-4.854847789E-1,1.166751742E0,1.037278938E1
4.230768546E0,-5.453495383E-1,1.153312683E0,1.037156773E1
4.233180473E0,-6.039925218E-1,1.120326042E0,1.036912441E1
4.235592452E0,-6.614138484E-1,1.066569924E0,1.036545944E1
4.238004432E0,-7.176133990E-1,9.957095981E-1,1.036057186E1
4.240416359E0,-7.677043080E-1,9.236275554E-1,1.035935020E1
4.242828338E0,-8.177952170E-1,8.552106619E-1,1.035690689E1
4.245240317E0,-8.642209172E-1,7.672461867E-1,1.035446358E1
4.247652244E0,-9.033163190E-1,6.585122347E-1,1.034835434E1
4.250064223E0,-9.387464523E-1,5.363392830E-1,1.034591103E1
4.252476202E0,-9.668462276E-1,4.092794061E-1,1.034224606E1
4.254888129E0,-9.900590777E-1,2.748891413E-1,1.033858109E1
4.257300109E0,-1.003498077E0,1.453858167E-1,1.033735943E1
4.259712088E0,-1.009606719E0,2.321286127E-2,1.033735943E1
4.262124015E0,-1.013271928E0,-1.001818255E-1,1.033491611E1
4.264535994E0,-1.012050271E0,-2.223547846E-1,1.033369446E1
4.266947973E0,-1.007163286E0,-3.469711840E-1,1.033491611E1
4.269359952E0,-9.998329282E-1,-4.691441655E-1,1.033369446E1
4.271771879E0,-9.863939285E-1,-5.888736248E-1,1.033369446E1
4.274183859E0,-9.644027948E-1,-7.049379349E-1,1.033491611E1
4.276595838E0,-9.387464523E-1,-8.210022449E-1,1.033491611E1
4.279007765E0,-9.033163190E-1,-9.321796298E-1,1.033858109E1
4.281419744E0,-8.666644096E-1,-1.032361507E0,1.033980274E1
4.283831723E0,-8.239038587E-1,-1.121547699E0,1.034102440E1
4.286243650E0,-7.774781585E-1,-1.202181935E0,1.034224606E1
4.288655629E0,-7.286089659E-1,-1.273042202E0,1.034346771E1
4.291067609E0,-6.797397733E-1,-1.339015603E0,1.034713268E1
4.293479536E0,-6.284271479E-1,-1.403767228E0,1.034957695E1
4.295891515E0,-5.783362389E-1,-1.469740629E0,1.035202026E1
4.298303494E0,-5.233584046E-1,-1.534492373E0,1.035202026E1
4.300715421E0,-4.586067200E-1,-1.577252865E0,1.035446358E1
4.303127400E0,-3.865246773E-1,-1.596800566E0,1.035568523E1
4.305539379E0,-3.132209182E-1,-1.607796073E0,1.035690689E1
4.307951307E0,-2.411388755E-1,-1.617569923E0,1.035690689E1
4.310363286E0,-1.702785641E-1,-1.612683058E0,1.035568523E1
4.312775265E0,-1.006399691E-1,-1.601687431E0,1.035690689E1
4.315187244E0,-3.344484791E-2,-1.569922447E0,1.035812855E1
4.317599171E0,3.497200832E-2,-1.518609881E0,1.035568523E1
4.320011150E0,1.070540547E-1,-1.448971272E0,1.035446358E1
4.322423129E0,1.779143661E-1,-1.361006737E0,1.035202026E1
4.324835057E0,2.475529462E-1,-1.264490128E0,1.035202026E1
4.327247036E0,3.086394370E-1,-1.164308310E0,1.035079861E1
4.329659015E0,3.611738086E-1,-1.055574298E0,1.035079861E1
4.332070942E0,4.075995386E-1,-9.370665550E-1,1.034713268E1
4.334482921E0,4.552469850E-1,-8.063415289E-1,1.034713268E1
4.336894900E0,4.980075061E-1,-6.731730103E-1,1.034468937E1
4.339306827E0,5.309942365E-1,-5.363392830E-1,1.034468937E1
4.341718807E0,5.590940118E-1,-3.995055556E-1,1.034346771E1
4.344130786E0,5.798633695E-1,-2.663370371E-1,1.034224606E1
4.346542713E0,5.957458615E-1,-1.331685185E-1,1.034102440E1
4.348954692E0,6.067414284E-1,0.000000000E0,1.034102440E1
4.351366671E0,6.152935624E-1,1.282816082E-1,1.034224606E1
4.353778598E0,6.165152788E-1,2.565632164E-1,1.034102440E1
4.356190577E0,6.128500700E-1,3.787361681E-1,1.034224606E1
4.358602557E0,5.994110703E-1,4.935787320E-1,1.034102440E1
4.361014484E0,5.786416531E-1,6.035344005E-1,1.034224606E1
4.363426463E0,5.542070866E-1,6.963858604E-1,1.034346771E1
4.365838442E0,5.285507441E-1,7.770199776E-1,1.034346771E1
4.368250421E0,4.955640435E-1,8.515455127E-1,1.034591103E1
4.370662348E0,4.576904476E-1,9.101884961E-1,1.034468937E1
4.373074327E0,4.185950756E-1,9.566142559E-1,1.034591103E1
4.375486307E0,3.819431961E-1,9.920443892E-1,1.034346771E1
4.377898234E0,3.379609287E-1,1.020144224E0,1.034346771E1
4.380310213E0,2.915352285E-1,1.045800447E0,1.034224606E1
4.382722192E0,2.463312149E-1,1.056796074E0,1.034102440E1
4.385134119E0,1.999054998E-1,1.055574298E0,1.033980274E1
4.387546098E0,1.498145908E-1,1.038470149E0,1.033735943E1
4.389958077E0,9.972367436E-2,1.007926941E0,1.033613777E1
4.392370004E0,4.963276163E-2,9.517273307E-1,1.033491611E1
4.394781984E0,-4.581485991E-4,8.857539296E-1,1.033002853E1
4.397193963E0,-5.054906011E-2,8.124501705E-1,1.032514191E1
4.399605890E0,-9.819651395E-2,7.391464114E-1,1.032147694E1
4.402017869E0,-1.446222365E-1,6.585122347E-1,1.031658936E1
4.404429848E0,-1.898262352E-1,5.656607747E-1,1.031170273E1
4.406841827E0,-2.289215773E-1,4.605920315E-1,1.030803776E1
4.409253754E0,-2.667951882E-1,3.445277214E-1,1.030559444E1
4.411665734E0,-3.010036349E-1,2.223547846E-1,1.029948521E1
4.414077713E0,-3.339903057E-1,1.014035568E-1,1.029459858E1
4.416489640E0,-3.633118272E-1,-2.199113183E-2,1.029093361E1
4.418901619E0,-3.840812445E-1,-1.453858167E-1,1.029093361E1
4.421313598E0,-4.036289155E-1,-2.687804997E-1,1.028726864E1
4.423725525E0,-4.158461988E-1,-3.933969140E-1,1.028482533E1
4.426137504E0,-4.256200492E-1,-5.192350745E-1,1.028482533E1
4.428549484E0,-4.292852283E-1,-6.414080262E-1,1.028238106E1
4.430961411E0,-4.292852283E-1,-7.525854111E-1,1.028360271E1
4.433373390E0,-4.243983030E-1,-8.564324379E-1,1.028482533E1
4.435785369E0,-4.195113778E-1,-9.517273307E-1,1.028360271E1
4.438197296E0,-4.048506320E-1,-1.029918075E0,1.028360271E1
4.440609275E0,-3.901898861E-1,-1.100778341E0,1.028604698E1
4.443021254E0,-3.718639314E-1,-1.167973399E0,1.028726864E1
4.445433182E0,-3.584249020E-1,-1.227838159E0,1.028726864E1
4.447845161E0,-3.425424397E-1,-1.277929068E0,1.028726864E1
4.450257140E0,-3.242164850E-1,-1.321911335E0,1.028726864E1
4.452669067E0,-2.985601723E-1,-1.354898095E0,1.028482533E1
4.455081046E0,-2.704603672E-1,-1.379332662E0,1.028726864E1
4.457493025E0,-2.399171442E-1,-1.390328288E0,1.028971195E1
4.459905004E0,-2.118173689E-1,-1.387884736E0,1.028971195E1
4.462316932E0,-1.812741160E-1,-1.376889229E0,1.028849030E1
4.464728911E0,-1.531743407E-1,-1.356119752E0,1.028726864E1
4.467140890E0,-1.226311028E-1,-1.324354887E0,1.028726864E1
4.469552765E0,-9.453132749E-2,-1.273042202E0,1.028604698E1
4.471964796E0,-7.009673119E-2,-1.203403592E0,1.028482533E1
4.474376775E0,-4.810560122E-2,-1.130099893E0,1.028360271E1
4.476788702E0,-2.489273995E-2,-1.056796074E0,1.028238106E1
4.479200682E0,-1.023198478E-2,-9.761618972E-1,1.027871609E1
4.481612661E0,3.207040019E-3,-8.881973624E-1,1.027871609E1
4.484024588E0,1.298087649E-2,-7.990111113E-1,1.027627277E1
4.486436567E0,2.153298259E-2,-7.037162185E-1,1.027627277E1
4.488848546E0,2.397644334E-2,-6.071996093E-1,1.027382946E1
4.491260473E0,2.764163166E-2,-5.082395077E-1,1.027260780E1
4.493672452E0,3.008509055E-2,-4.080576599E-1,1.027138615E1
4.496084432E0,2.641990222E-2,-3.017672002E-1,1.027016449E1
4.498496359E0,2.031125315E-2,-1.918115467E-1,1.027016449E1
4.500908338E0,1.053741761E-2,-8.307760954E-2,1.026772022E1
4.503320317E0,-4.581485991E-4,2.321286127E-2,1.026649857E1
4.505732296E0,-1.634063199E-2,1.282816082E-1,1.026772022E1
4.508144223E0,-3.344484791E-2,2.296851575E-1,1.026649857E1
4.510556202E0,-5.543597788E-2,3.286452591E-1,1.026649857E1
4.512968129E0,-8.231402934E-2,4.214966893E-1,1.026772022E1
4.515380109E0,-1.116355360E-1,5.082395077E-1,1.026405525E1
4.517792088E0,-1.409570426E-1,5.888736248E-1,1.026405525E1
4.520204067E0,-1.739437431E-1,6.646208763E-1,1.026527691E1
4.522615994E0,-2.069304436E-1,7.257073522E-1,1.026405525E1
4.525027973E0,-2.411388755E-1,7.782417536E-1,1.026405525E1
4.527439952E0,-2.790125012E-1,8.197805285E-1,1.026405525E1
4.529851879E0,-3.193295598E-1,8.588758707E-1,1.026405525E1
4.532263859E0,-3.608683646E-1,9.016364217E-1,1.026161194E1
4.534675838E0,-3.987419903E-1,9.346231222E-1,1.026039028E1
4.537087765E0,-4.341721535E-1,9.407317638E-1,1.025916862E1
4.539499744E0,-4.720457494E-1,9.260709882E-1,1.025672531E1
4.541911723E0,-5.099193454E-1,9.126319885E-1,1.025672531E1
4.544323702E0,-5.453495383E-1,9.089667797E-1,1.025428200E1
4.546735629E0,-5.795579553E-1,8.894191384E-1,1.025306034E1
4.549147609E0,-6.149880886E-1,8.393282294E-1,1.024939442E1
4.551559588E0,-6.504182816E-1,7.770199776E-1,1.024695110E1
4.553971515E0,-6.846266985E-1,7.159335017E-1,1.024450779E1
4.556383494E0,-7.127264738E-1,6.524035931E-1,1.024328613E1
4.558795473E0,-7.359393239E-1,5.913171172E-1,1.023962116E1
4.561207400E0,-7.542653084E-1,5.106829405E-1,1.023717785E1
4.563619379E0,-7.713695168E-1,3.946186602E-1,1.023595524E1
4.566031359E0,-7.884737253E-1,2.602283955E-1,1.023229027E1
4.568443286E0,-8.006910086E-1,1.233946830E-1,1.022984695E1
4.570855265E0,-8.067996502E-1,-1.221729559E-3,1.022618198E1
4.573267244E0,-8.080213666E-1,-1.270598769E-1,1.022618198E1
4.575679171E0,-8.043562174E-1,-2.516762912E-1,1.022618198E1
4.578091150E0,-7.982475758E-1,-3.824013472E-1,1.022496033E1
4.580503129E0,-7.860302329E-1,-5.094612241E-1,1.022373867E1
4.582915057E0,-7.689260244E-1,-6.340776682E-1,1.022373867E1
4.585327036E0,-7.444914579E-1,-7.562506199E-1,1.022496033E1
4.587739015E0,-7.163916826E-1,-8.710931540E-1,1.022618198E1
4.590150942E0,-6.760746241E-1,-9.786053896E-1,1.022740364E1
4.592562921E0,-6.345357895E-1,-1.078787208E0,1.022862530E1
4.594974900E0,-5.881100893E-1,-1.169195175E0,1.023351192E1
4.597386827E0,-5.331322551E-1,-1.246164203E0,1.023473358E1
4.599798807E0,-4.757109582E-1,-1.310915828E0,1.023962116E1
4.602210786E0,-4.207331240E-1,-1.361006737E0,1.024206448E1
4.604622713E0,-3.620901108E-1,-1.401323795E0,1.024450779E1
4.607034692E0,-3.022253513E-1,-1.435532212E0,1.024695110E1
4.609446671E0,-2.399171442E-1,-1.458745122E0,1.024695110E1
4.611858650E0,-1.812741160E-1,-1.472184062E0,1.025183773E1
4.614270577E0,-1.189659163E-1,-1.470962405E0,1.025183773E1
4.616682557E0,-5.787943676E-2,-1.455079913E0,1.025061607E1
4.619094536E0,3.207040019E-3,-1.428201914E0,1.025061607E1
4.621506463E0,6.673697382E-2,-1.395215154E0,1.024939442E1
4.623918442E0,1.290451884E-1,-1.354898095E0,1.024939442E1
4.626330421E0,1.901316643E-1,-1.309694052E0,1.024817276E1
4.628742348E0,2.487746775E-1,-1.259603143E0,1.024939442E1
4.631154327E0,3.013090491E-1,-1.199738383E0,1.024817276E1
4.633566307E0,3.489564955E-1,-1.130099893E0,1.024695110E1
4.635978234E0,3.941605091E-1,-1.051909208E0,1.024328613E1
4.638390213E0,4.405862093E-1,-9.688315392E-1,1.024328613E1
4.640802192E0,4.833467603E-1,-8.747583628E-1,1.024084282E1
4.643214171E0,5.224421024E-1,-7.733548284E-1,1.024084282E1
4.645626098E0,5.554288030E-1,-6.633991599E-1,1.023839951E1
4.648038077E0,5.847502947E-1,-5.497782826E-1,1.023595524E1
4.650450004E0,6.055197120E-1,-4.337140024E-1,1.023473358E1
4.652861984E0,6.214022040E-1,-3.152062297E-1,1.023473358E1
4.655273963E0,6.323977709E-1,-1.918115467E-1,1.023351192E1
4.657685942E0,6.385064125E-1,-6.841685623E-2,1.023229027E1
4.660097869E0,6.385064125E-1,5.253437161E-2,1.023106861E1
4.662509848E0,6.336194873E-1,1.698204130E-1,1.022862530E1
4.664921827E0,6.238456368E-1,2.834412456E-1,1.022862530E1
4.667333702E0,6.067414284E-1,3.933969140E-1,1.022862530E1
4.669745734E0,5.847502947E-1,5.033525825E-1,1.022984695E1
4.672157661E0,5.590940118E-1,6.108647585E-1,1.022740364E1
4.674569640E0,5.334376693E-1,7.073814273E-1,1.022740364E1
4.676981619E0,5.028944016E-1,7.867938280E-1,1.022618198E1
4.679393598E0,4.625773430E-1,8.552106619E-1,1.022618198E1
4.681805525E0,4.149298966E-1,9.101884961E-1,1.022740364E1
4.684217504E0,3.636172712E-1,9.505056143E-1,1.022496033E1
4.686629484E0,3.123046160E-1,9.847140312E-1,1.022373867E1
4.689041411E0,2.634354234E-1,9.981530309E-1,1.022373867E1
4.691453390E0,2.121227980E-1,9.969313145E-1,1.022251701E1
4.693865369E0,1.644753367E-1,9.883792400E-1,1.022129536E1
4.696277244E0,1.107192412E-1,9.749401808E-1,1.021885109E1
4.698689275E0,5.085449293E-2,9.566142559E-1,1.021640778E1
4.701101254E0,-1.023198478E-2,9.236275554E-1,1.021274281E1
4.703513182E0,-7.131846249E-2,8.784235716E-1,1.020785618E1
4.705925161E0,-1.299614757E-1,8.258891702E-1,1.020419025E1
4.708337140E0,-1.849393100E-1,7.623592615E-1,1.019930363E1
4.710749119E0,-2.399171442E-1,6.963858604E-1,1.019319534E1
4.713161046E0,-2.924515009E-1,6.206386089E-1,1.019075203E1
4.715573025E0,-3.437641561E-1,5.338957906E-1,1.018830776E1
4.717985004E0,-3.914116025E-1,4.398226440E-1,1.018586445E1
4.720396932E0,-4.341721535E-1,3.371973634E-1,1.018219948E1
4.722808911E0,-4.708240330E-1,2.321286201E-1,1.017975616E1
4.725220890E0,-5.038107038E-1,1.221729591E-1,1.017731285E1
4.727632817E0,-5.331322551E-1,1.099556591E-2,1.017364788E1
4.730044796E0,-5.587885380E-1,-9.896009415E-2,1.017364788E1
4.732456775E0,-5.832231641E-1,-2.089157552E-1,1.017242527E1
4.734868702E0,-6.027708054E-1,-3.152062297E-1,1.016998196E1
4.737280682E0,-6.210967898E-1,-4.214966893E-1,1.016753864E1
4.739692661E0,-6.357575059E-1,-5.229002237E-1,1.016876030E1
4.742104588E0,-6.467530727E-1,-6.206386089E-1,1.016631699E1
4.744516567E0,-6.553052068E-1,-7.183769941E-1,1.016631699E1
4.746928546E0,-6.589703560E-1,-8.112284541E-1,1.016631699E1
4.749340473E0,-6.614138484E-1,-8.991929293E-1,1.016509533E1
4.751752452E0,-6.577486396E-1,-9.871574640E-1,1.016387367E1
4.754164432E0,-6.479747891E-1,-1.071456790E0,1.016631699E1
4.756576411E0,-6.357575059E-1,-1.144760609E0,1.016753864E1
4.758988338E0,-6.210967898E-1,-1.209512234E0,1.016753864E1
4.761400317E0,-6.052142978E-1,-1.270598769E0,1.016876030E1
4.763812244E0,-5.832231641E-1,-1.323133111E0,1.016998196E1
4.766224223E0,-5.575668216E-1,-1.374445796E0,1.017242527E1
4.768636202E0,-5.282453299E-1,-1.423314929E0,1.017486954E1
4.771048182E0,-4.952586293E-1,-1.458745122E0,1.017609119E1
4.773460109E0,-4.561632872E-1,-1.475849271E0,1.017609119E1
4.775872088E0,-4.182896614E-1,-1.474627614E0,1.017609119E1
4.778284067E0,-3.804160357E-1,-1.457523346E0,1.017609119E1
4.780695994E0,-3.400989771E-1,-1.423314929E0,1.017486954E1
4.783107973E0,-2.997818887E-1,-1.364671946E0,1.017364788E1
4.785519952E0,-2.582430840E-1,-1.293811560E0,1.017242527E1
4.787931879E0,-2.191477418E-1,-1.224173069E0,1.017120361E1
4.790343807E0,-1.812741160E-1,-1.150869250E0,1.016876030E1
4.792755838E0,-1.482874304E-1,-1.070235133E0,1.016753864E1
4.795167765E0,-1.189659163E-1,-9.773836732E-1,1.016753864E1
4.797579744E0,-9.575305134E-2,-8.784235716E-1,1.016387367E1
4.799991723E0,-7.254019380E-2,-7.745765448E-1,1.016387367E1
4.802403650E0,-5.421425030E-2,-6.633991599E-1,1.016265202E1
4.804815629E0,-3.711003438E-2,-5.510000587E-1,1.016143036E1
4.807227609E0,-2.367101051E-2,-4.410443604E-1,1.016020870E1
4.809639588E0,-1.389717404E-2,-3.335321844E-1,1.016020870E1
4.812051515E0,-7.788525894E-3,-2.284634262E-1,1.015898705E1
4.814463494E0,-4.123337101E-3,-1.258381456E-1,1.015776539E1
4.816875473E0,-4.123337101E-3,-2.809977904E-2,1.015654373E1
4.819287400E0,-6.566796452E-3,6.108647957E-2,1.015776539E1
4.821699379E0,-1.267544460E-2,1.502727419E-1,1.015776539E1
4.824111359E0,-1.878409274E-2,2.455676347E-1,1.015898705E1
4.826523286E0,-2.977965772E-2,3.457494676E-1,1.015898705E1
4.828935265E0,-4.199695215E-2,4.459312856E-1,1.015776539E1
4.831347244E0,-5.910116807E-2,5.412262082E-1,1.015898705E1
4.833759171E0,-7.742711157E-2,6.279689670E-1,1.015898705E1
4.836171150E0,-9.697478265E-2,7.073814273E-1,1.015776539E1
4.838583129E0,-1.165224537E-1,7.806851864E-1,1.015654373E1
4.840995057E0,-1.372918636E-1,8.417716622E-1,1.015776539E1
4.843407036E0,-1.580612659E-1,8.808670044E-1,1.015654373E1
4.845819015E0,-1.849393100E-1,8.943060637E-1,1.015776539E1
4.848230942E0,-2.154825479E-1,9.089667797E-1,1.015776539E1
4.850642921E0,-2.435823381E-1,9.260709882E-1,1.015654373E1
4.853054900E0,-2.729038298E-1,9.407317638E-1,1.015532112E1
4.855466775E0,-3.046688139E-1,9.517273307E-1,1.015287781E1
4.857878807E0,-3.352120519E-1,9.468404055E-1,1.015165615E1
4.860290786E0,-3.669770062E-1,9.175189137E-1,1.015043449E1
4.862702765E0,-3.950767815E-1,8.710931540E-1,1.014676952E1
4.865114692E0,-4.231765866E-1,8.112284541E-1,1.014554787E1
4.867526671E0,-4.488328993E-1,7.391464114E-1,1.014310455E1
4.869938650E0,-4.696022868E-1,6.572905183E-1,1.013943863E1
4.872350577E0,-4.915934205E-1,5.607738495E-1,1.013699532E1
4.874762557E0,-5.111411214E-1,4.557051361E-1,1.013333035E1
4.877174536E0,-5.270236135E-1,3.591884971E-1,1.013088703E1
4.879586463E0,-5.392408967E-1,2.663370371E-1,1.012844372E1
4.881998442E0,-5.453495383E-1,1.685986817E-1,1.012722206E1
4.884410421E0,-5.514581800E-1,5.986474827E-2,1.012477875E1
4.886822348E0,-5.526798964E-1,-5.742128938E-2,1.012355614E1
4.889234327E0,-5.514581800E-1,-1.820377111E-1,1.012111282E1
4.891646307E0,-5.453495383E-1,-3.066541255E-1,1.011989117E1
4.894058963E0,-5.367974043E-1,-4.312705398E-1,1.011989117E1
4.896470213E0,-5.209149122E-1,-5.497782826E-1,1.012111282E1
4.898882192E0,-5.001455545E-1,-6.682860851E-1,1.011989117E1
4.901294119E0,-4.757109582E-1,-7.843503952E-1,1.012111282E1
4.903706098E0,-4.463894367E-1,-8.967494965E-1,1.012233448E1
4.906118077E0,-4.146244824E-1,-1.001818180E0,1.012233448E1
4.908530004E0,-3.791943192E-1,-1.098334908E0,1.012477875E1
4.910941984E0,-3.376555145E-1,-1.186299443E0,1.012722206E1
4.913353963E0,-2.912297845E-1,-1.262046576E0,1.012722206E1
4.915765890E0,-2.435823381E-1,-1.340237379E0,1.013210869E1
4.918177869E0,-1.947131455E-1,-1.414762855E0,1.013333035E1
4.920589848E0,-1.434005052E-1,-1.467297196E0,1.013455200E1
4.923001827E0,-8.597921580E-2,-1.495396972E0,1.013699532E1
4.925413754E0,-2.855792828E-2,-1.503949046E0,1.013699532E1
4.927825734E0,3.008509055E-2,-1.505170822E0,1.013943863E1
4.930237713E0,8.750637621E-2,-1.494175196E0,1.014066124E1
4.932649640E0,1.412624866E-1,-1.469740629E0,1.013943863E1
4.935061619E0,1.937968582E-1,-1.439197421E0,1.013943863E1
4.937473598E0,2.463312149E-1,-1.407432437E0,1.013943863E1
4.939885525E0,2.976438701E-1,-1.375667453E0,1.013821697E1
4.942297504E0,3.477347791E-1,-1.328019977E0,1.013821697E1
4.944709484E0,3.917170465E-1,-1.266933560E0,1.013699532E1
4.947121411E0,4.295906425E-1,-1.187521100E0,1.013699532E1
4.949533390E0,4.699077308E-1,-1.087339282E0,1.013455200E1
