"Time (s)","Linear Acceleration x (m/s^2)","Linear Acceleration y (m/s^2)","Linear Acceleration z (m/s^2)"
4.239807700E-2,0.000000000E0,0.000000000E0,0.000000000E0
4.722203600E-2,3.644319773E-1,-1.725187302E-1,1.051063538E-1
5.204594200E-2,6.057842970E-1,-2.894945145E-1,1.204957962E-1
5.686990000E-2,9.365429878E-1,-3.612937927E-1,3.187751770E-1
6.169380700E-2,1.194811583E0,-3.849964142E-1,5.274839401E-1
6.651776500E-2,1.482640982E0,-4.111251831E-1,4.091749191E-1
7.134167100E-2,1.868960500E0,-5.773887634E-1,5.970516205E-1
7.616557700E-2,2.168641567E0,-7.474431992E-1,8.599929810E-1
8.098948400E-2,2.457347870E0,-8.829078674E-1,7.583189011E-1
8.581344200E-2,2.747171164E0,-8.161888123E-1,8.457279205E-1
9.063740000E-2,3.054511309E0,-7.388191223E-1,1.069017410E0
9.546130700E-2,3.272852421E0,-6.621189117E-1,1.181595802E0
1.002852650E-1,3.657828808E0,-4.766836166E-1,1.403240204E0
1.051091710E-1,4.194235325E0,-1.764640808E-1,1.886797905E0
1.099331290E-1,4.282273769E0,-7.723236084E-2,1.968168259E0
1.147570360E-1,4.277776241E0,-7.216548920E-2,1.827549934E0
1.195809420E-1,4.346502304E0,-1.364822388E-1,1.970466614E0
1.244049000E-1,4.545033455E0,-5.807666779E-1,1.671021461E0
1.292288070E-1,4.798730850E0,-9.226169586E-1,1.298647881E0
1.340527650E-1,4.919153690E0,-1.106892586E0,1.288699150E0
1.388766190E-1,4.960494995E0,-1.357943058E0,1.072688103E0
1.437006290E-1,5.215735435E0,-1.625385761E0,7.756185532E-1
1.485244840E-1,5.391748428E0,-1.892360210E0,5.624542236E-1
1.533484420E-1,5.618178844E0,-2.248074532E0,3.456621170E-1
1.581724000E-1,5.753700733E0,-2.663384914E0,1.700782776E-1
1.629963070E-1,5.793733597E0,-3.197919369E0,4.950046539E-2
1.678202650E-1,5.657993793E0,-3.727568626E0,-2.280921936E-1
1.726441710E-1,5.514647007E0,-4.211210728E0,-5.012321472E-1
1.774681290E-1,5.614135742E0,-4.687470436E0,-4.535198212E-1
1.822920360E-1,5.624709129E0,-5.488671303E0,-5.395908356E-1
1.871159420E-1,5.762520313E0,-5.831124783E0,-5.754232407E-1
1.919399000E-1,5.794178009E0,-6.224205494E0,-4.798965454E-1
1.967638070E-1,5.907028198E0,-6.517209530E0,-3.841695786E-1
2.015877650E-1,5.920419693E0,-6.925519943E0,-2.581634521E-1
2.064116710E-1,5.716238022E0,-7.138224602E0,-1.856985092E-1
2.112355770E-1,5.652509689E0,-7.324909210E0,-3.981056213E-1
2.160595360E-1,5.728551388E0,-7.429647923E0,-3.976964951E-1
2.208834420E-1,5.753956795E0,-7.558411598E0,-4.397153854E-1
2.257074000E-1,5.769598007E0,-7.725761414E0,-4.953050613E-1
2.305313070E-1,5.748454094E0,-7.850433350E0,-5.148229599E-1
2.353552650E-1,5.693212509E0,-7.953741074E0,-6.168937683E-1
2.401791710E-1,5.609276295E0,-8.082191467E0,-6.762943268E-1
2.450031290E-1,5.507144451E0,-8.183248520E0,-6.308078766E-1
2.498270360E-1,5.343981266E0,-8.231101036E0,-6.268024445E-1
2.546509420E-1,5.211538792E0,-8.200984001E0,-5.847978592E-1
2.594749000E-1,5.150338173E0,-8.157235146E0,-5.743684769E-1
2.642988070E-1,4.950464249E0,-8.015325546E0,-5.458383560E-1
2.691227650E-1,4.999430656E0,-8.282655716E0,-5.409383774E-1
2.739466710E-1,5.519372940E0,-8.359998703E0,-3.061103821E-1
2.787705770E-1,5.623309612E0,-8.388422012E0,-2.500705719E-1
2.835945360E-1,5.567122936E0,-8.553675652E0,-3.523807526E-1
2.884184420E-1,5.514695168E0,-8.639401436E0,-3.143615723E-1
2.932424000E-1,5.601834297E0,-8.923683167E0,-4.754915237E-1
2.980663070E-1,5.455699921E0,-9.179071426E0,-6.663446426E-1
3.028902650E-1,5.191807270E0,-9.142925262E0,-7.311201096E-1
3.077141710E-1,5.065011501E0,-9.449836731E0,-9.456806183E-1
3.125381290E-1,4.941268444E0,-9.893471718E0,-1.349679947E0
3.173620360E-1,4.835462093E0,-1.017271233E1,-1.416463852E0
3.221859420E-1,4.714253426E0,-1.063331223E1,-1.418737411E0
3.270099000E-1,4.533136845E0,-1.110503864E1,-1.415174484E0
3.318338070E-1,4.496419907E0,-1.154052353E1,-1.226327896E0
3.366577650E-1,4.391121387E0,-1.183676720E1,-1.089545250E0
3.414816710E-1,4.163861275E0,-1.200780678E1,-1.063620567E0
3.463055770E-1,3.895783424E0,-1.219007111E1,-7.920160294E-1
3.511295360E-1,3.645598412E0,-1.233891201E1,-6.773118973E-1
3.559534420E-1,3.316753626E0,-1.262446117E1,-4.779376984E-1
3.607774000E-1,2.908868790E0,-1.284923553E1,-3.185644150E-1
3.656013070E-1,2.740021706E0,-1.294635201E1,-1.552791595E-1
3.704252650E-1,2.662889481E0,-1.271810341E1,5.126285553E-2
3.752491710E-1,2.541575909E0,-1.272116470E1,1.630039215E-1
3.800731290E-1,2.288122177E0,-1.280862522E1,1.551761627E-1
3.848970360E-1,2.054053783E0,-1.282632732E1,2.133827209E-1
3.897209420E-1,1.808915973E0,-1.266030788E1,2.658672333E-1
3.945449000E-1,1.531016231E0,-1.256614494E1,2.683506012E-1
3.993688070E-1,1.362547636E0,-1.241124439E1,2.718114853E-1
4.041927650E-1,1.129667044E0,-1.208647728E1,4.069509506E-1
4.090166710E-1,9.825088978E-1,-1.157849312E1,6.636714935E-1
4.138405770E-1,9.510664940E-1,-1.109145355E1,9.234132767E-1
4.186645360E-1,8.352739811E-1,-1.058354855E1,1.166348457E0
4.234884420E-1,4.061373472E-1,-1.036966419E1,1.231134415E0
4.283124000E-1,1.834107637E-1,-1.034485054E1,1.031015396E0
4.331363070E-1,-8.721530437E-2,-1.031066227E1,9.313907623E-1
4.379602650E-1,-1.903052330E-1,-1.030297279E1,8.224620819E-1
4.427841710E-1,-2.864418030E-1,-1.020088577E1,7.066926956E-1
4.476080770E-1,-5.178081989E-1,-1.001517487E1,6.906890869E-1
4.524320360E-1,-6.217756271E-1,-9.983056068E0,4.584474564E-1
4.572559420E-1,-7.138937116E-1,-9.995794296E0,-4.022216797E-2
4.620799000E-1,-6.545699239E-1,-1.007647610E1,-1.004581451E-1
4.669038070E-1,-4.509724379E-1,-1.029250717E1,-1.063928604E-1
4.717277130E-1,-5.014085770E-1,-1.051163578E1,-2.768306732E-1
4.765516710E-1,-1.062026858E0,-1.057720089E1,-5.843610764E-1
4.813755250E-1,-1.391871452E0,-1.056406689E1,-7.676305771E-1
4.861995360E-1,-1.066234350E0,-1.072369289E1,-8.426227570E-1
4.910234420E-1,-1.118425608E0,-1.088995075E1,-8.391809464E-1
4.958474000E-1,-1.360575795E0,-1.103362465E1,-9.027004242E-1
5.006713070E-1,-1.632822037E0,-1.097453117E1,-1.167486191E0
5.054952650E-1,-1.566381574E0,-1.093959332E1,-1.228895187E0
5.103191710E-1,-1.341121197E0,-1.098269844E1,-1.053541183E0
5.151430770E-1,-1.225850344E0,-1.100559521E1,-9.754562378E-1
5.199670360E-1,-1.344415545E0,-1.091589451E1,-1.221055984E0
5.247909420E-1,-1.492469430E0,-1.083810139E1,-1.344115257E0
5.296149000E-1,-1.471048117E0,-1.048582649E1,-1.220300674E0
5.344388070E-1,-1.411669016E0,-1.028394127E1,-1.273787498E0
5.392627130E-1,-1.462264299E0,-1.011491394E1,-1.275349617E0
5.440866710E-1,-1.557768226E0,-9.893712997E0,-1.268054008E0
5.489105770E-1,-1.520478249E0,-9.623764992E0,-1.183185577E0
5.537345360E-1,-1.397642732E0,-9.258877754E0,-9.858646393E-1
5.585584420E-1,-1.283088684E0,-8.885875702E0,-8.121709824E-1
5.633824000E-1,-1.200133324E0,-8.607266426E0,-7.210149765E-1
5.682063070E-1,-1.083644748E0,-8.448822021E0,-5.549936295E-1
5.730302130E-1,-8.666486740E-1,-8.000186920E0,-1.984319687E-1
5.778541710E-1,-8.485609889E-1,-7.658376694E0,-5.830764771E-2
5.826780770E-1,-6.908284426E-1,-7.515494347E0,3.107738495E-2
5.875020360E-1,-6.134361029E-1,-7.361820698E0,1.793870926E-1
5.923259420E-1,-4.855415225E-1,-7.110387325E0,2.936325073E-1
5.971499000E-1,-2.729547620E-1,-7.172837257E0,-3.188133240E-3
6.019738070E-1,-9.674911201E-2,-7.115285397E0,-7.667827606E-2
6.067977130E-1,5.985122174E-2,-7.112369537E0,4.264068604E-2
6.116216710E-1,1.414986849E-1,-7.237533569E0,-2.140512466E-1
6.164455770E-1,1.862725616E-1,-7.318977833E0,-3.240537643E-1
6.212695360E-1,2.332823873E-1,-7.452228069E0,-4.048833847E-1
6.260934420E-1,3.089112639E-1,-7.523040771E0,-5.824851990E-1
6.309173480E-1,4.034321904E-1,-7.607927322E0,-5.165319443E-1
6.357413070E-1,4.216735661E-1,-7.749482155E0,-5.030260086E-1
6.405652130E-1,3.801677525E-1,-8.058477402E0,-7.025814056E-1
6.453891710E-1,3.282576799E-1,-8.206015587E0,-6.455049515E-1
6.502130770E-1,2.577978373E-1,-8.290805817E0,-3.761367798E-1
6.550370360E-1,2.542219162E-1,-8.659513474E0,-4.678936005E-1
6.598609420E-1,4.916923046E-1,-8.747549057E0,-3.433132172E-1
6.646848480E-1,5.204306841E-1,-9.015225410E0,9.320926666E-2
6.695088070E-1,3.442623019E-1,-9.090644836E0,1.078662872E-1
6.743327130E-1,2.105611563E-1,-9.070323944E0,1.783971786E-1
6.791566710E-1,2.992613316E-1,-9.128616333E0,4.103946686E-1
6.839805770E-1,4.139837027E-1,-9.044040680E0,2.343835831E-1
6.888044840E-1,3.371313810E-1,-9.048080444E0,1.254310608E-1
6.936284420E-1,4.669003487E-1,-9.102098465E0,4.808282852E-1
6.984523480E-1,5.265574455E-1,-9.046644211E0,4.174442291E-1
7.032763070E-1,3.837120533E-1,-8.842327118E0,1.493053436E-1
7.081002130E-1,3.636507988E-1,-8.645009041E0,3.779592514E-1
7.129241710E-1,3.347001076E-1,-8.350439072E0,5.270357132E-1
7.177480770E-1,2.721025944E-1,-7.957413673E0,6.495199203E-1
7.225719840E-1,2.390811443E-1,-7.713927269E0,8.575763702E-1
7.273959420E-1,1.400306225E-1,-7.602277756E0,8.066949844E-1
7.322198480E-1,1.566720009E-1,-7.367436409E0,8.963527679E-1
7.370438070E-1,2.947280407E-1,-7.103176117E0,1.062047005E0
7.418677130E-1,3.341501951E-1,-7.120704174E0,9.475145340E-1
7.466916710E-1,5.824670792E-1,-7.168246746E0,9.571390152E-1
7.515155770E-1,6.448112726E-1,-7.275798798E0,8.011245728E-1
7.563394840E-1,5.480068922E-1,-7.344850540E0,4.887313843E-1
7.611634420E-1,5.131483078E-1,-7.436597824E0,1.478147507E-1
7.659873480E-1,5.984557867E-1,-7.467214584E0,-2.068490982E-1
7.708113070E-1,7.260850668E-1,-7.557422161E0,-3.514261246E-1
7.756352130E-1,6.956409216E-1,-7.845926762E0,-6.006774902E-1
7.804591710E-1,5.192348957E-1,-8.235070229E0,-1.020205498E0
7.852830770E-1,9.653130174E-1,-8.673464775E0,-1.174398422E0
7.901069840E-1,1.283096313E0,-9.164231300E0,-1.217650414E0
7.949309420E-1,1.030080557E0,-9.378024101E0,-1.278896332E0
7.997548480E-1,7.045334578E-1,-9.617737770E0,-1.419859886E0
8.045788070E-1,6.821894646E-1,-9.984504700E0,-1.476570129E0
8.094027130E-1,7.135863304E-1,-1.010577011E1,-1.447821617E0
8.142266190E-1,7.131979465E-1,-1.012531853E1,-1.448819160E0
8.190505770E-1,5.726048946E-1,-1.013347149E1,-1.434699059E0
8.238744840E-1,5.891132355E-1,-1.034381676E1,-1.437358856E0
8.286984420E-1,7.094120979E-1,-1.076151180E1,-1.372434616E0
8.335223480E-1,8.221168518E-1,-1.097590923E1,-1.336648941E0
8.383462540E-1,7.522971630E-1,-1.095017052E1,-1.287603378E0
8.431702130E-1,7.657527924E-1,-1.064851093E1,-1.183095932E0
8.479941190E-1,9.045430422E-1,-1.041573429E1,-9.670324326E-1
8.528180770E-1,9.403012991E-1,-1.047501564E1,-7.855243683E-1
8.576419840E-1,6.678036451E-1,-1.017583466E1,-6.973962784E-1
8.624659420E-1,6.529307365E-1,-9.856370926E0,-5.875501633E-1
8.672898480E-1,8.079330921E-1,-9.517738342E0,-1.822319031E-1
8.721137540E-1,9.300394058E-1,-9.469911575E0,8.689785004E-2
8.769377130E-1,9.472753406E-1,-9.376288414E0,2.715005875E-1
8.817616190E-1,8.955088854E-1,-8.824659348E0,7.303762436E-1
8.865855770E-1,6.975522041E-1,-8.582029343E0,9.209394455E-1
8.914094840E-1,4.494217634E-1,-8.680105209E0,4.768390656E-1
8.962333900E-1,5.905150771E-1,-8.615520477E0,4.511423111E-1
9.010573480E-1,7.374697924E-1,-8.575387955E0,7.254276276E-1
9.058812540E-1,6.234724522E-1,-8.612086296E0,5.416336060E-1
9.107052130E-1,6.376801729E-1,-8.630167007E0,1.781644821E-1
9.155291190E-1,6.473452449E-1,-8.748773575E0,-1.924991608E-2
9.203530770E-1,7.154257298E-1,-8.829613686E0,-1.089401245E-1
9.251769840E-1,7.547693253E-1,-8.906243324E0,-5.132198334E-2
9.300008900E-1,7.348562479E-1,-9.021636009E0,-6.949424744E-3
9.348248480E-1,5.968197584E-1,-9.268082619E0,-2.092533112E-1
9.396487540E-1,3.822705150E-1,-9.599308014E0,-4.191341400E-1
9.444727130E-1,1.608767509E-1,-9.867154121E0,-3.320550919E-1
9.492966190E-1,-3.999021649E-2,-1.022641373E1,-2.472381592E-1
9.541205250E-1,-1.173252761E-1,-1.040021992E1,-3.099441528E-1
9.589444840E-1,-2.612489164E-1,-1.046095181E1,-2.766246796E-1
9.637683900E-1,-2.647493482E-1,-1.058749390E1,-2.406024933E-2
9.685923480E-1,-6.393661499E-1,-1.068875027E1,1.276521683E-1
9.734162540E-1,-8.871412277E-1,-1.077883053E1,1.146240234E-1
9.782402130E-1,-8.819602132E-1,-1.069827557E1,1.921977997E-1
9.830641190E-1,-8.812050819E-1,-1.068585014E1,5.729770660E-2
9.878880250E-1,-9.427179098E-1,-1.061988449E1,1.225671768E-1
9.927119840E-1,-1.040029526E0,-1.053381252E1,1.272239685E-1
9.975358900E-1,-1.165202141E0,-1.040861320E1,-5.244541168E-2
1.002359848E0,-1.290775776E0,-1.028259659E1,-1.180715561E-1
1.007183754E0,-1.394137859E0,-1.013915634E1,-1.203279495E-1
1.012007661E0,-1.513616323E0,-9.933407784E0,-1.856718063E-1
1.016831619E0,-1.672014236E0,-9.627797127E0,-1.588468552E-1
1.021655525E0,-1.843924403E0,-9.199416161E0,-5.195331573E-2
1.026479484E0,-1.890064716E0,-8.882575035E0,2.772521973E-2
1.031303390E0,-1.931467056E0,-8.688751221E0,9.486484528E-2
1.036127348E0,-1.857544184E0,-8.460377693E0,1.093034744E-1
1.040951254E0,-1.686886787E0,-8.257150650E0,2.048969269E-1
1.045775161E0,-1.695581436E0,-7.972069263E0,3.434658051E-1
1.050599119E0,-1.579734921E0,-7.636822701E0,4.678554535E-1
1.055423025E0,-1.494465590E0,-7.711028576E0,2.067222595E-1
1.060246984E0,-1.279092073E0,-7.754321575E0,1.643962860E-1
1.065070890E0,-1.346463084E0,-7.550047398E0,1.551628113E-3
1.069894796E0,-1.362655163E0,-7.582462788E0,-3.648538589E-1
1.074718754E0,-1.155597925E0,-7.645403385E0,-6.459665298E-1
1.079542661E0,-1.131604552E0,-7.590916634E0,-8.662528992E-1
1.084366619E0,-1.172628641E0,-7.564461708E0,-1.009554863E0
1.089190525E0,-1.028837919E0,-7.713193893E0,-1.226383209E0
1.094014432E0,-9.211618900E-1,-8.099987984E0,-1.447326660E0
1.098838390E0,-8.740099669E-1,-8.539273262E0,-1.636551857E0
1.103662296E0,-9.045638442E-1,-8.861063957E0,-1.765460968E0
1.108486254E0,-9.747676849E-1,-9.015665054E0,-1.810276985E0
1.113310161E0,-8.980070353E-1,-8.820486069E0,-1.675803185E0
1.118134119E0,-6.762940884E-1,-8.915579796E0,-1.534082413E0
1.122958025E0,-5.453748107E-1,-9.261104584E0,-1.380198479E0
1.127781932E0,-6.192271113E-1,-9.388998032E0,-1.273651123E0
1.132605890E0,-5.676788688E-1,-9.336422920E0,-9.760599136E-1
1.137429796E0,-6.058752537E-1,-9.316631317E0,-9.505615234E-1
1.142253702E0,-5.663963556E-1,-9.317827225E0,-9.865055084E-1
1.147077661E0,-5.988482237E-1,-9.323474884E0,-8.598995209E-1
1.151901515E0,-4.799723029E-1,-9.248458862E0,-6.433248520E-1
1.156725525E0,-3.323306441E-1,-9.174802780E0,-4.614925385E-1
1.161549432E0,-3.397553563E-1,-9.072035789E0,-4.264698029E-1
1.166373390E0,-2.995232940E-1,-8.883952141E0,-3.019857407E-1
1.171197296E0,-4.627406597E-2,-8.457313538E0,9.474563599E-2
1.176021202E0,-9.620893002E-2,-7.837345600E0,4.790277481E-1
1.180845161E0,-2.686415315E-1,-7.500122070E0,6.842870712E-1
1.185669067E0,-7.821840048E-2,-7.212021351E0,9.233484268E-1
1.190493025E0,3.773033619E-3,-7.071097851E0,1.079451561E0
1.195316932E0,-1.672381163E-2,-7.096435547E0,1.129320145E0
1.200140890E0,2.639710903E-3,-6.985213280E0,1.183219910E0
1.204964796E0,-6.853610277E-2,-6.981310368E0,1.012527466E0
1.209788702E0,7.110422850E-2,-6.984660149E0,9.042043686E-1
1.214612661E0,1.719278693E-1,-7.102625370E0,8.651447296E-1
1.219436567E0,2.469660640E-1,-7.105940819E0,6.591501236E-1
1.224260525E0,3.386056423E-1,-6.983272552E0,6.086740494E-1
1.229084432E0,3.793911934E-1,-6.916327477E0,6.130905151E-1
1.233908338E0,3.994665146E-1,-6.954822063E0,4.340143204E-1
1.238732296E0,3.665119708E-1,-7.166825294E0,1.987342834E-1
1.243556202E0,2.148245275E-1,-7.641326427E0,-5.169105530E-2
1.248380161E0,1.519878507E-1,-8.002392769E0,-2.525539398E-1
1.253204067E0,1.571524739E-1,-8.290456772E0,-2.774829865E-1
1.258027973E0,1.471738219E-1,-8.633827209E0,-1.888980865E-1
1.262851932E0,6.797581911E-2,-8.814893723E0,-1.324167252E-1
1.267675838E0,-2.304151058E-1,-8.885980606E0,-3.077602386E-1
1.272499796E0,-2.254178524E-1,-8.963797569E0,-2.801523209E-1
1.277323702E0,-5.642747879E-2,-9.221558571E0,-6.496047974E-2
1.282147609E0,-1.068472862E-1,-9.295674324E0,-2.559852600E-2
1.286971567E0,-1.816079617E-1,-9.288793564E0,-9.279441833E-2
1.291795473E0,-1.964589357E-1,-9.377007484E0,-5.474662781E-2
1.296619432E0,-2.612328529E-1,-9.373404503E0,-3.200874329E-1
1.301443338E0,-2.244743109E-1,-9.471020699E0,-4.499778748E-1
1.306267296E0,-2.089456320E-1,-9.654642105E0,-3.695344925E-1
1.311091202E0,-3.376406431E-1,-9.718618393E0,-6.422605515E-1
1.315915109E0,-5.276119709E-1,-9.572780609E0,-7.709608078E-1
1.320739067E0,-5.760256052E-1,-9.113477707E0,-5.202856064E-1
1.325562973E0,-4.319413900E-1,-8.552042961E0,-3.614425659E-1
1.330386879E0,-4.290336370E-1,-8.256031036E0,-3.081445694E-1
1.335210838E0,-5.079385042E-1,-8.117015839E0,-2.331991196E-1
1.340034744E0,-5.166840553E-1,-7.934337139E0,-1.576776505E-1
1.344858702E0,-4.533944130E-1,-7.701141834E0,-3.808784485E-2
1.349682609E0,-3.252146244E-1,-7.463115215E0,1.212844849E-1
1.354506567E0,-1.494103670E-1,-7.460891247E0,2.039909363E-2
1.359330473E0,-6.709659100E-2,-7.393051147E0,3.522872925E-2
1.364154379E0,-2.375340462E-2,-7.381247520E0,-8.685588837E-2
1.368978338E0,1.613048315E-1,-7.522857666E0,-4.239444733E-1
1.373802244E0,3.344358206E-1,-7.550287247E0,-4.506969452E-1
1.378626202E0,1.997492909E-1,-7.516087532E0,-5.924072266E-1
1.383450109E0,1.832666397E-1,-7.608593464E0,-9.392976761E-1
1.388274015E0,2.442910075E-1,-7.772229195E0,-1.178394318E0
1.393097973E0,4.444229603E-1,-8.032714844E0,-1.307975769E0
1.397921879E0,6.058678031E-1,-8.220108032E0,-1.373997688E0
1.402745838E0,5.737166405E-1,-8.574916840E0,-1.419751167E0
1.407569744E0,3.868789673E-1,-9.014964104E0,-1.500225067E0
1.412393650E0,2.562883496E-1,-9.494004250E0,-1.579689980E0
1.417217609E0,1.554299593E-1,-9.937426567E0,-1.472323418E0
1.422041515E0,4.087883234E-2,-1.008305073E1,-1.226607323E0
1.426865421E0,1.330262423E-1,-9.977671623E0,-8.813886642E-1
1.431689379E0,1.194210649E-1,-9.884823799E0,-8.376960754E-1
1.436513338E0,1.279978156E-1,-9.990784645E0,-5.892505646E-1
1.441337244E0,1.010231972E-1,-1.011849308E1,-3.158845901E-1
1.446161150E0,1.201784611E-2,-1.015134525E1,-2.922134399E-1
1.450985109E0,-1.418379545E-1,-1.012114525E1,-1.671915054E-1
1.455809015E0,-2.571247816E-1,-9.973615646E0,-1.464643478E-1
1.460632973E0,-2.942159176E-1,-9.902727127E0,-2.083024979E-1
1.465456879E0,-2.405930758E-1,-9.868374825E0,4.332256317E-2
1.470280786E0,-1.853455305E-1,-9.832809448E0,1.590652466E-1
1.475104744E0,-2.831274271E-1,-9.801133156E0,9.188270569E-2
1.479928650E0,-4.325806499E-1,-9.571207047E0,2.218484879E-1
1.484752609E0,-4.252854586E-1,-9.023343086E0,5.271682739E-1
1.489576515E0,-4.461200833E-1,-8.531910896E0,9.098873138E-1
1.494400421E0,-4.685415626E-1,-7.995401382E0,1.301039696E0
1.499224379E0,-5.280327201E-1,-7.974761486E0,1.307457924E0
1.504048286E0,-5.764404535E-1,-7.934404373E0,1.114330292E0
1.508872244E0,-6.914442778E-1,-7.707812309E0,1.263898849E0
1.513696150E0,-1.048711061E0,-7.615260601E0,1.154147148E0
1.518520057E0,-1.091010809E0,-7.627428532E0,8.311157227E-1
1.523344015E0,-1.016027808E0,-7.669953346E0,5.576372147E-1
1.528167921E0,-9.329324365E-1,-7.764119148E0,4.668979645E-1
1.532991879E0,-8.095769882E-1,-7.940413475E0,4.483890533E-1
1.537815786E0,-7.586072683E-1,-7.981278896E0,2.584066391E-1
1.542639692E0,-8.495357633E-1,-7.958372593E0,-2.491950989E-3
1.547463650E0,-8.051266074E-1,-8.121878624E0,-1.552963257E-1
1.552287557E0,-6.936443448E-1,-8.458707809E0,-2.337656021E-1
1.557111515E0,-8.967964053E-1,-8.760035515E0,-2.667207718E-1
1.561935421E0,-1.256103992E0,-9.108524323E0,-4.831953049E-1
1.566759379E0,-1.070681930E0,-9.369771004E0,-5.866842270E-1
1.571583286E0,-1.135774493E0,-9.352760315E0,-5.296926498E-1
1.576407192E0,-1.344454765E0,-9.394289970E0,-4.890861511E-1
1.581231150E0,-1.223474264E0,-9.450842857E0,-3.788585663E-1
1.586055057E0,-1.264199257E0,-9.597913742E0,-4.330186844E-1
1.590879015E0,-1.369079947E0,-9.555651665E0,-5.104274750E-1
1.595702921E0,-1.495035648E0,-9.426827431E0,-6.350317001E-1
1.600526827E0,-1.461196899E0,-9.349823952E0,-7.305955887E-1
1.605350786E0,-1.402338624E0,-9.250460625E0,-7.808218002E-1
1.610174692E0,-1.450460196E0,-9.135851860E0,-8.766946793E-1
1.614998598E0,-1.517222404E0,-8.989420891E0,-9.275646210E-1
1.619822557E0,-1.552822828E0,-8.859035492E0,-9.098196030E-1
1.624646463E0,-1.538628817E0,-8.663747787E0,-9.143810272E-1
1.629470421E0,-1.486958981E0,-8.385107040E0,-7.908992767E-1
1.634294327E0,-1.509592772E0,-8.054744720E0,-6.589584351E-1
1.639118234E0,-1.529132724E0,-7.828228951E0,-5.876207352E-1
1.643942192E0,-1.347978115E0,-7.786318302E0,-5.431957245E-1
1.648766098E0,-1.298967719E0,-7.568624496E0,-3.750514984E-1
1.653590057E0,-1.404676199E0,-7.111925125E0,-2.287797928E-1
1.658413963E0,-9.940205812E-1,-7.082644939E0,-1.805200577E-1
1.663237921E0,-9.212840796E-1,-6.788203239E0,8.278274536E-2
1.668061827E0,-8.948606849E-1,-6.640205383E0,-9.571075439E-3
1.672885734E0,-8.157382011E-1,-6.495315552E0,-1.225261688E-1
1.677709692E0,-5.801597238E-1,-6.680336952E0,-2.585077286E-1
1.682533546E0,-3.571626842E-1,-6.710323811E0,-3.006706238E-1
1.687357557E0,-2.429988980E-1,-6.881617546E0,-4.283838272E-1
1.692181463E0,-1.484586298E-1,-7.048212528E0,-6.797142029E-1
1.697005369E0,-1.709032208E-1,-7.067085743E0,-7.490520477E-1
1.701829327E0,-1.940705478E-1,-7.160491467E0,-8.851385117E-1
1.706653234E0,-1.676484495E-1,-7.275854111E0,-1.032913208E0
1.711477192E0,-6.387555599E-2,-7.489096165E0,-9.894456863E-1
1.716301098E0,-5.117790401E-2,-7.897565365E0,-1.031900406E0
1.721125004E0,2.408158034E-2,-8.231010437E0,-9.856681824E-1
1.725948963E0,4.359865189E-2,-8.489417076E0,-8.770332336E-1
1.730772869E0,-1.500360817E-1,-8.313124657E0,-8.133268356E-1
1.735596827E0,-1.504711807E-1,-8.505081177E0,-7.345695496E-1
1.740420734E0,9.960818291E-2,-8.649319649E0,-3.377141953E-1
1.745244640E0,-6.365668774E-2,-8.919986725E0,-1.795825958E-1
1.750068598E0,-3.824762106E-1,-8.856380463E0,-3.239183426E-1
1.754892504E0,-2.135753632E-1,-8.772590637E0,-6.861495972E-2
1.759716463E0,-1.280113459E-1,-8.859717369E0,2.340316772E-1
1.764540369E0,-2.261242270E-1,-8.814374924E0,2.207660675E-1
1.769364275E0,-2.966054082E-1,-8.725491524E0,1.426153183E-1
1.774188234E0,-2.721304893E-1,-8.729433060E0,1.520404816E-1
1.779012088E0,-3.388025761E-1,-8.699688911E0,2.197017670E-1
1.783836098E0,-3.164291382E-1,-8.531727791E0,3.044948578E-1
1.788660004E0,-2.558795214E-1,-8.309946060E0,4.061412811E-1
1.793483911E0,-3.801673651E-1,-7.904002190E0,5.413389206E-1
1.798307869E0,-3.844799995E-1,-7.565663815E0,7.745313644E-1
1.803131775E0,-3.874256611E-1,-7.383461475E0,1.000627518E0
1.807955682E0,-4.646425843E-1,-7.090120792E0,1.079279900E0
1.812779640E0,-4.370790720E-1,-6.836948395E0,1.171094894E0
1.817603546E0,-4.647568464E-1,-6.802747250E0,1.173812866E0
1.822427504E0,-5.059897304E-1,-6.807924747E0,1.145369530E0
1.827251411E0,-3.058297634E-1,-6.859445095E0,1.026437759E0
1.832075369E0,-2.110590339E-1,-6.878367424E0,8.843183517E-1
1.836899275E0,-3.160119653E-1,-6.859581470E0,7.790098190E-1
1.841723182E0,-5.321366191E-1,-6.836059570E0,5.126533508E-1
1.846547140E0,-5.804572701E-1,-7.019305706E0,1.072692871E-1
1.851371046E0,-4.518024325E-1,-7.214972019E0,-2.124471664E-1
1.856195004E0,-6.932544708E-2,-7.493822575E0,-2.534685135E-1
1.861018911E0,-2.080901861E-1,-7.790254116E0,-4.316444397E-1
1.865842817E0,-2.389409542E-1,-7.998569489E0,-6.009550095E-1
1.870666775E0,-3.279417753E-2,-8.356835365E0,-6.731452942E-1
1.875490682E0,-1.250616908E-1,-8.541691780E0,-8.035087585E-1
1.880314588E0,-4.995424151E-1,-8.576659203E0,-9.010095596E-1
1.885138546E0,-5.704753995E-1,-8.914569855E0,-9.872331619E-1
1.889962452E0,-3.800546527E-1,-8.969249725E0,-1.031350136E0
1.894786411E0,-4.548341632E-1,-9.077229500E0,-1.040884018E0
1.899610317E0,-4.396452904E-1,-9.254412651E0,-9.160642624E-1
1.904434275E0,-4.191695452E-1,-9.311701775E0,-1.018074989E0
1.909258182E0,-5.272607803E-1,-9.430019379E0,-1.213148117E0
1.914082088E0,-6.952500343E-1,-9.568072319E0,-1.310420990E0
1.918906046E0,-7.802488804E-1,-9.439451218E0,-1.386756897E0
1.923729952E0,-5.167613029E-1,-9.114704132E0,-1.139753342E0
1.928553911E0,-2.720388174E-1,-8.971598625E0,-9.598789215E-1
1.933377713E0,-1.221222878E-1,-9.109763145E0,-9.690656662E-1
1.938201723E0,-1.652362347E-1,-9.084867477E0,-9.162950516E-1
1.943025682E0,-3.541418314E-1,-8.740386963E0,-7.632379532E-1
1.947849588E0,-5.291135311E-1,-8.345079422E0,-6.409864426E-1
1.952673546E0,-5.002819300E-1,-8.104921341E0,-4.488039017E-1
1.957497452E0,-2.207603455E-1,-7.783886909E0,-8.873271942E-2
1.962321359E0,-1.139830351E-1,-7.688326836E0,8.612823486E-2
1.967145317E0,-1.999278665E-1,-7.381618023E0,2.224998474E-1
1.971969223E0,-2.340092063E-1,-7.432711124E0,2.541389465E-1
1.976793182E0,5.846422911E-2,-7.259083748E0,5.516395569E-1
1.981617088E0,-9.295940399E-3,-7.224680901E0,6.493234634E-1
1.986440994E0,-1.459115148E-1,-7.400659561E0,9.661293030E-2
1.991264952E0,-9.515488148E-2,-7.430934429E0,-2.434253693E-1
1.996088859E0,5.726152658E-2,-7.225727081E0,-8.654594421E-3
2.000912817E0,1.633151472E-1,-7.251374245E0,1.637363434E-2
2.005736723E0,2.296069562E-1,-7.450106144E0,-2.922105789E-1
2.010560629E0,2.458817959E-1,-7.621019840E0,-4.492769241E-1
2.015384536E0,2.293038666E-1,-7.747501373E0,-6.105327606E-1
2.020208494E0,2.154364288E-1,-7.901090145E0,-5.970468521E-1
2.025032400E0,1.678367555E-1,-8.193614006E0,-4.593858719E-1
2.029856359E0,3.047766909E-2,-8.633651733E0,-6.226854324E-1
2.034680265E0,-9.326125681E-2,-8.910128593E0,-6.468963623E-1
2.039504223E0,-4.288952351E-1,-9.259373665E0,-4.223928452E-1
2.044328129E0,-5.805270672E-1,-9.427879333E0,-2.981653214E-1
2.049151984E0,-7.440962791E-1,-9.346854210E0,-4.337930679E-1
2.053975994E0,-5.375226736E-1,-9.432469368E0,-1.865653992E-1
2.058799900E0,-3.848474026E-1,-9.372173309E0,4.256839752E-1
2.063623859E0,-5.126759410E-1,-9.431236267E0,3.491687775E-1
2.068447765E0,-7.025874257E-1,-9.489703178E0,4.363822937E-2
2.073271723E0,-8.144376278E-1,-9.554733276E0,1.323385239E-1
2.078095629E0,-8.296533823E-1,-9.440232277E0,1.103096008E-1
2.082919536E0,-1.021861315E0,-9.209007263E0,1.399106979E-1
2.087743494E0,-1.216648579E0,-8.990488052E0,1.206502914E-1
2.092567348E0,-1.289804697E0,-8.794340134E0,-7.059097290E-3
2.097391307E0,-1.398964643E0,-8.554096222E0,1.366558075E-1
2.102215265E0,-1.493334770E0,-8.265608788E0,3.865776062E-1
2.107039171E0,-1.524218798E0,-7.998522282E0,3.917484283E-1
2.111863129E0,-1.542899132E0,-7.691081047E0,4.776744843E-1
2.116687036E0,-1.625854015E0,-7.300889015E0,7.423686981E-1
2.121510942E0,-1.591761708E0,-7.183872700E0,7.941894531E-1
2.126334900E0,-1.491102576E0,-6.986296177E0,7.962093353E-1
2.131158807E0,-1.428233862E0,-6.891967297E0,7.678489685E-1
2.135982765E0,-1.290271282E0,-6.860100269E0,6.949434280E-1
2.140806671E0,-1.173975229E0,-6.902341843E0,6.396636963E-1
2.145630577E0,-1.077163577E0,-6.915596962E0,2.915096283E-1
2.150454536E0,-9.575634599E-1,-6.909427643E0,9.503746033E-2
2.155278442E0,-1.078221440E0,-6.823845387E0,6.639766693E-2
2.160102400E0,-1.253543496E0,-6.904105663E0,-3.560752869E-1
2.164926307E0,-1.199245214E0,-6.917960167E0,-7.395467758E-1
2.169750213E0,-8.647071123E-1,-7.037198067E0,-7.308301926E-1
2.174574171E0,-8.775774240E-1,-7.367989063E0,-9.611186981E-1
2.179398077E0,-1.109146118E0,-7.632031918E0,-1.210194588E0
2.184222036E0,-1.230381370E0,-8.050411224E0,-1.394299507E0
2.189045942E0,-9.588420391E-1,-8.385572433E0,-1.525282860E0
2.193869848E0,-8.760048151E-1,-8.491622925E0,-1.514724731E0
2.198693807E0,-9.429849386E-1,-8.700263977E0,-1.398576736E0
2.203517713E0,-1.072871566E0,-8.779365540E0,-1.432392120E0
2.208341619E0,-1.033839107E0,-8.752830505E0,-1.334080696E0
2.213165577E0,-8.690762520E-1,-8.804775238E0,-1.108834267E0
2.217989484E0,-8.328220844E-1,-8.970664978E0,-1.205992699E0
2.222813442E0,-8.860981464E-1,-9.123659134E0,-1.295582771E0
2.227637348E0,-9.656457901E-1,-8.846366882E0,-1.193993568E0
2.232461202E0,-9.823049307E-1,-8.472400665E0,-1.066632271E0
2.237285213E0,-7.532031536E-1,-8.436923027E0,-8.852415085E-1
2.242109119E0,-6.249848008E-1,-8.407666206E0,-7.600364685E-1
2.246933077E0,-5.954475403E-1,-8.151233673E0,-6.384515762E-1
2.251756984E0,-5.995126367E-1,-7.800334930E0,-4.392566681E-1
2.256580890E0,-6.191524267E-1,-7.301631927E0,-4.070949554E-2
2.261404848E0,-5.447580814E-1,-6.556580544E0,3.946294785E-1
2.266228754E0,-4.676099420E-1,-6.607239723E0,5.422229767E-1
2.271052713E0,-3.687445819E-1,-6.609594345E0,6.536598206E-1
2.275876619E0,-4.478788674E-1,-6.528417587E0,6.839179993E-1
2.280700525E0,-3.826896846E-1,-6.278847218E0,9.270324707E-1
2.285524484E0,-3.219696283E-1,-6.260454655E0,9.886512756E-1
2.290348390E0,-3.613304496E-1,-6.348589420E0,5.038204193E-1
2.295172348E0,-3.312286139E-1,-6.445316792E0,2.710351944E-1
2.299996202E0,-1.238046512E-1,-6.448049545E0,1.582374573E-1
2.304820161E0,2.599865198E-2,-6.429017544E0,2.581157684E-1
2.309644119E0,9.407620877E-2,-6.386096954E0,2.119016647E-1
2.314468025E0,1.631106585E-1,-6.448126316E0,-5.419921875E-2
2.319291984E0,2.285873145E-1,-6.600569248E0,-2.221755981E-1
2.324115890E0,2.619775832E-1,-6.819108486E0,-2.133655548E-1
2.328939796E0,1.107865274E-1,-7.169901848E0,-2.954015732E-1
2.333763754E0,3.960457444E-2,-7.542315960E0,-4.129238129E-1
2.338587661E0,4.580014944E-2,-7.921394825E0,-4.032287598E-1
2.343411567E0,1.230284572E-2,-8.158731461E0,-3.164796829E-1
2.348235525E0,-1.167809665E-1,-8.321198463E0,-3.197393417E-1
2.353059432E0,-1.057864428E-1,-8.406382561E0,-1.022768021E-1
2.357883338E0,-2.208977342E-1,-8.586080551E0,8.475399017E-2
2.362707296E0,-3.213281631E-1,-8.585409164E0,1.926517487E-2
2.367531202E0,-2.452292442E-1,-8.629073143E0,7.170104980E-2
2.372355161E0,-3.617786765E-1,-8.645189285E0,2.820549011E-1
2.377179067E0,-5.891470909E-1,-8.604784012E0,1.649169922E-1
2.382003025E0,-6.172575951E-1,-8.600869179E0,3.328990936E-2
2.386826932E0,-6.021211147E-1,-8.504412651E0,9.202098846E-2
2.391650838E0,-6.333804131E-1,-8.403972626E0,-3.216743469E-2
2.396474796E0,-7.377336025E-1,-8.335240364E0,-1.075220108E-1
2.401298702E0,-8.633401394E-1,-8.197895050E0,1.608085632E-2
2.406122661E0,-9.073157310E-1,-7.896710396E0,-1.998996735E-2
2.410946567E0,-8.834729195E-1,-7.527826786E0,5.214595795E-2
2.415770473E0,-1.040452003E0,-7.189500332E0,2.183027267E-1
2.420594432E0,-1.106434703E0,-6.967622757E0,2.422094345E-1
2.425418338E0,-9.731932878E-1,-6.876081467E0,2.271261215E-1
2.430242244E0,-9.016840458E-1,-6.795339584E0,3.478536606E-1
2.435066202E0,-7.580290437E-1,-6.584748268E0,4.516820908E-1
2.439890109E0,-7.306559086E-1,-6.569128036E0,3.551464081E-1
2.444714067E0,-6.728854179E-1,-6.611405373E0,1.998653412E-1
2.449537921E0,-4.242645502E-1,-6.461052895E0,2.894277573E-1
2.454361879E0,-4.255316257E-1,-6.438148022E0,9.785652161E-3
2.459185838E0,-4.463969171E-1,-6.558592319E0,-3.493614197E-1
2.464009744E0,-3.674875796E-1,-6.697462082E0,-5.730037689E-1
2.468833702E0,-3.563644588E-1,-6.832742214E0,-8.597183228E-1
2.473657609E0,-2.217381001E-1,-6.918825150E0,-9.874544144E-1
2.478481515E0,5.995631218E-4,-7.651830196E0,-1.224195480E0
2.483305473E0,-1.423236728E-2,-8.010178566E0,-1.350107193E0
2.488129379E0,-1.241414249E-1,-7.973102570E0,-1.401238441E0
2.492953338E0,-1.430180073E-1,-7.935259342E0,-1.349079132E0
2.497777244E0,-2.144891620E-1,-7.972765446E0,-1.360954285E0
2.502601150E0,-4.203383029E-1,-8.223285675E0,-1.501163483E0
2.507425109E0,-3.052392602E-1,-8.666666031E0,-1.456676483E0
2.512249015E0,-1.528742313E-1,-8.903410912E0,-1.275731087E0
2.517072973E0,-2.164162993E-1,-8.991109848E0,-1.171239853E0
2.521896879E0,-2.788212299E-1,-8.887246132E0,-9.688997269E-1
2.526720786E0,-2.244496346E-1,-8.929189682E0,-8.316020966E-1
2.531544744E0,-2.852206230E-1,-9.004492760E0,-7.785949707E-1
2.536368650E0,-3.840057850E-1,-8.953359604E0,-7.192077637E-1
2.541192557E0,-4.254840016E-1,-8.922064781E0,-5.964450836E-1
2.546016515E0,-3.760129213E-1,-8.848885536E0,-5.300865173E-1
2.550840421E0,-4.081194401E-1,-8.786830902E0,-4.961900711E-1
2.555664379E0,-4.116619825E-1,-8.769778252E0,-4.397068024E-1
2.560488286E0,-4.252218008E-1,-8.535640717E0,-2.507390976E-1
2.565312192E0,-2.769292593E-1,-7.947764874E0,1.518239975E-1
2.570136150E0,-1.902602315E-1,-7.357027531E0,6.317567825E-1
2.574960057E0,-2.034637928E-1,-7.186822891E0,8.740463257E-1
2.579784015E0,-3.989897966E-1,-7.088146687E0,7.601575851E-1
2.584607921E0,-5.515741110E-1,-7.008849144E0,8.069295883E-1
2.589431827E0,-3.755425513E-1,-6.990044594E0,9.879579544E-1
2.594255786E0,-3.405182660E-1,-6.829139709E0,1.085838318E0
2.599079692E0,-4.448871017E-1,-6.746535778E0,9.956884384E-1
2.603903650E0,-3.490563035E-1,-6.756595135E0,7.750921249E-1
2.608727557E0,-3.699584603E-1,-6.842418194E0,6.868667603E-1
2.613551463E0,-4.083298743E-1,-6.901126862E0,4.152917862E-1
2.618375421E0,-3.661806583E-1,-6.997008801E0,2.447290421E-1
2.623199327E0,-4.313991070E-1,-7.268129826E0,2.082777023E-1
2.628023234E0,-5.383247137E-1,-7.491753101E0,-4.923820496E-3
2.632847192E0,-5.385823250E-1,-7.646126747E0,-1.318979263E-1
2.637671098E0,-4.613321126E-1,-7.728748322E0,-1.226634979E-1
2.642495057E0,-4.317475557E-1,-7.785117149E0,-1.279039383E-1
2.647318963E0,-4.336476326E-1,-7.822334290E0,-6.869792938E-2
2.652142869E0,-5.858065486E-1,-7.854594707E0,-1.191997528E-2
2.656966827E0,-1.137442708E0,-8.086528778E0,-2.296628952E-1
2.661790734E0,-1.213639855E0,-8.435599327E0,-3.509969711E-1
2.666614692E0,-9.085549712E-1,-8.617053986E0,-2.040023804E-1
2.671438598E0,-9.048112631E-1,-8.793008804E0,-3.513622284E-2
2.676262504E0,-1.175651431E0,-8.838694572E0,-1.024169922E-1
2.681086463E0,-1.196295261E0,-8.758971214E0,-1.882133484E-1
2.685910369E0,-1.183221102E0,-8.673186302E0,-1.685352325E-1
2.690734275E0,-1.213077545E0,-8.550177574E0,-2.014923096E-1
2.695558234E0,-1.308762074E0,-8.490100861E0,-3.326206207E-1
2.700382140E0,-1.440737009E0,-8.413647652E0,-4.043540955E-1
2.705206098E0,-1.447754622E0,-8.253834724E0,-5.125474930E-1
2.710030004E0,-1.450122118E0,-8.108907700E0,-5.569448471E-1
2.714853911E0,-1.512207508E0,-7.923937798E0,-5.018472672E-1
2.719677869E0,-1.597311139E0,-7.734972954E0,-4.954357147E-1
2.724501775E0,-1.668634415E0,-7.475316525E0,-4.276008606E-1
2.729325734E0,-1.734583139E0,-7.248091221E0,-2.982568741E-1
2.734149640E0,-1.643793941E0,-6.989026546E0,-2.219581604E-1
2.738973546E0,-1.521643877E0,-6.677007675E0,-7.415580750E-2
2.743797504E0,-1.337818623E0,-6.408107758E0,1.261472702E-1
2.748621411E0,-1.244715691E0,-6.263509274E0,1.259202957E-1
2.753445317E0,-1.233145952E0,-6.159428596E0,7.378482819E-2
2.758269275E0,-1.142796516E0,-6.195914268E0,-1.065750122E-1
2.763093182E0,-1.070488095E0,-6.157744408E0,-2.525539398E-1
2.767917140E0,-7.426807880E-1,-6.240918636E0,-2.735824585E-1
2.772741046E0,-5.338459015E-1,-6.428350449E0,-5.115938187E-1
2.777564952E0,-6.289104819E-1,-6.383003235E0,-6.487140656E-1
2.782388911E0,-7.169948220E-1,-6.363211632E0,-8.596858978E-1
2.787212817E0,-6.584923267E-1,-6.633553505E0,-1.161248207E0
2.792036775E0,-5.604379177E-1,-6.725302219E0,-1.238027573E0
2.796860682E0,-4.563243687E-1,-6.746198654E0,-1.267174721E0
2.801684588E0,-4.212461710E-1,-7.109105110E0,-1.360939980E0
2.806508546E0,-4.231747389E-1,-7.488066196E0,-1.394838333E0
2.811332452E0,-3.071104586E-1,-7.911321640E0,-1.294729233E0
2.816156359E0,-2.260350883E-1,-7.949084282E0,-1.125159264E0
2.820980317E0,-2.965586782E-1,-8.039228439E0,-9.959802628E-1
2.825804223E0,-3.621367216E-1,-8.076685905E0,-9.237232208E-1
2.830628182E0,-2.856490910E-1,-7.944782257E0,-8.341541290E-1
2.835452088E0,-2.812013030E-1,-8.052689552E0,-4.621906281E-1
2.840276046E0,-2.274489403E-1,-8.228204727E0,-2.312316895E-1
2.845099952E0,-2.838664055E-1,-8.184841156E0,-3.442182541E-1
2.849923859E0,-5.032803416E-1,-8.200237274E0,-1.725711823E-1
2.854747817E0,-5.291973948E-1,-8.160057068E0,-1.207380295E-1
2.859571723E0,-4.636857510E-1,-7.969438553E0,-1.601085663E-1
2.864395629E0,-4.914073944E-1,-7.755828857E0,8.907985687E-2
2.869219588E0,-4.124245048E-1,-7.581957817E0,2.439432144E-1
2.874043494E0,-2.946034670E-1,-7.388915062E0,3.880786896E-1
2.878867452E0,-2.883989215E-1,-7.098772526E0,6.958122253E-1
2.883691359E0,-4.582082629E-1,-6.924899578E0,7.561311722E-1
2.888515265E0,-6.337803602E-1,-6.714620590E0,7.392435074E-1
2.893339223E0,-6.177095771E-1,-6.256368637E0,1.063387871E0
2.898163129E0,-6.993676424E-1,-6.341232300E0,1.085592270E0
2.902987036E0,-4.659689963E-1,-6.280691147E0,9.784574509E-1
2.907810994E0,-2.678249776E-1,-6.245023251E0,1.114912987E0
2.912634900E0,-2.729100883E-1,-6.253427982E0,1.067032814E0
2.917458859E0,-4.039388895E-1,-6.181459904E0,9.498968124E-1
2.922282765E0,-5.995761156E-1,-6.151003838E0,8.353757858E-1
2.927106671E0,-6.464262009E-1,-6.209588528E0,5.921192169E-1
2.931930629E0,-5.649451613E-1,-6.261079311E0,3.159065247E-1
2.936754536E0,-4.363751113E-1,-6.441128254E0,1.835889816E-1
2.941578442E0,-2.544025779E-1,-6.884905338E0,2.298641205E-2
2.946402400E0,-1.676985323E-1,-7.115975857E0,-1.442804337E-1
2.951226307E0,-2.067267895E-1,-7.222902298E0,-1.676054001E-1
2.956050265E0,-5.917335153E-1,-7.324754238E0,-2.214155197E-1
2.960874171E0,-8.422071338E-1,-7.680840492E0,-5.037317276E-1
2.965698077E0,-5.346366763E-1,-7.933981419E0,-5.578336716E-1
2.970522036E0,-3.468410373E-1,-7.969433308E0,-4.199342728E-1
2.975345942E0,-3.544164896E-1,-8.037986755E0,-3.650569916E-1
2.980169900E0,-5.818766356E-1,-8.007721901E0,-3.596096039E-1
2.984993807E0,-8.437223434E-1,-8.019019127E0,-4.728145599E-1
2.989817713E0,-7.992832065E-1,-8.140643120E0,-5.303287506E-1
2.994641671E0,-8.410001397E-1,-8.199623108E0,-6.209030151E-1
2.999465577E0,-8.937743306E-1,-8.193305969E0,-7.399568558E-1
3.004289536E0,-8.785135746E-1,-8.145603180E0,-8.065595627E-1
3.009113442E0,-8.192014098E-1,-8.115853310E0,-7.781744003E-1
3.013937348E0,-7.914047837E-1,-8.053742409E0,-8.774251938E-1
3.018761307E0,-7.530131936E-1,-7.940210819E0,-8.893184662E-1
3.023585213E0,-7.594996691E-1,-7.837459564E0,-8.356161118E-1
3.028409119E0,-7.674853802E-1,-7.616573811E0,-8.071851730E-1
3.033233077E0,-7.646011114E-1,-7.378524303E0,-6.820602417E-1
3.038056984E0,-7.310345173E-1,-7.161842823E0,-5.748996735E-1
3.042880890E0,-6.589092016E-1,-6.964435577E0,-4.663486481E-1
3.047704848E0,-5.803165436E-1,-6.805798054E0,-2.916145325E-1
3.052528754E0,-4.459459782E-1,-6.538384438E0,-6.722068787E-2
3.057352661E0,-3.947684169E-1,-6.559062004E0,-1.034965515E-1
3.062176619E0,-4.994129539E-1,-6.504365444E0,-1.320981979E-1
3.067000525E0,-2.454753816E-1,-6.398889542E0,1.051816940E-1
3.071824484E0,-5.386188626E-2,-6.118973732E0,9.199905396E-2
3.076648390E0,-9.351104498E-2,-6.300335407E0,-2.046556473E-1
3.081472348E0,-7.453429699E-2,-6.440478325E0,-3.209133148E-1
3.086296254E0,-6.827965379E-2,-6.508538246E0,-4.769544601E-1
3.091120161E0,8.252865076E-2,-6.616854668E0,-5.438966751E-1
3.095944119E0,4.087735713E-2,-7.244789124E0,-7.657003403E-1
3.100768025E0,-3.929825872E-2,-7.512145042E0,-9.295949936E-1
3.105591932E0,-4.769678414E-2,-7.481870651E0,-8.852252960E-1
3.110415890E0,-3.692257404E-2,-7.515424728E0,-7.691240311E-1
3.115239796E0,-6.896880269E-2,-7.533934593E0,-7.510118484E-1
3.120063754E0,2.266736329E-2,-7.504301071E0,-6.969013214E-1
3.124887661E0,1.692299247E-1,-7.608152390E0,-5.279474258E-1
3.129711567E0,1.103354990E-2,-7.974073887E0,-4.305992126E-1
3.134535525E0,-1.421552300E-1,-8.324207306E0,-5.193395615E-1
3.139359432E0,-1.297609210E-1,-8.305069923E0,-4.020156860E-1
3.144183338E0,-3.252601624E-1,-8.502647400E0,-1.793165207E-1
3.149007296E0,-3.421485722E-1,-8.570208549E0,-6.175041199E-2
3.153831202E0,-3.477227688E-1,-8.512945175E0,-5.883789062E-2
3.158655161E0,-4.444728494E-1,-8.477076530E0,1.099109650E-2
3.163479067E0,-5.417197347E-1,-8.474504471E0,1.139497757E-1
3.168302973E0,-6.652517319E-1,-8.519644737E0,1.135740280E-1
3.173126932E0,-6.703141332E-1,-8.345131874E0,1.173648834E-1
3.177950838E0,-6.775778532E-1,-8.104843140E0,2.039947510E-1
3.182774796E0,-7.165466547E-1,-7.854217529E0,3.469457626E-1
3.187598702E0,-8.705952764E-1,-7.739419937E0,4.577369690E-1
3.192422557E0,-9.762750268E-1,-7.516800880E0,5.102319717E-1
3.197246567E0,-1.066397190E0,-7.280211926E0,5.810871124E-1
3.202070473E0,-1.054368258E0,-7.113551140E0,6.680269241E-1
3.206894379E0,-1.128025770E0,-6.952486992E0,7.664365768E-1
3.211718338E0,-1.160977602E0,-6.730432510E0,8.526477814E-1
3.216542244E0,-1.153316140E0,-6.595762730E0,8.958473206E-1
3.221366150E0,-1.091260672E0,-6.543664455E0,8.890953064E-1
3.226190109E0,-9.945272207E-1,-6.468983650E0,8.875408173E-1
3.231014015E0,-1.036507130E0,-6.345464230E0,8.578300476E-1
3.235837973E0,-1.061051607E0,-6.404555321E0,6.733903885E-1
3.240661879E0,-9.704084992E-1,-6.416432381E0,3.797836304E-1
3.245485786E0,-8.595472574E-1,-6.483583927E0,2.972345352E-1
3.250309744E0,-8.535647988E-1,-6.700991631E0,1.218957901E-1
3.255133650E0,-1.149647355E0,-6.859687328E0,-2.011442184E-1
3.259957609E0,-1.234754682E0,-6.899311543E0,-3.969936371E-1
3.264781515E0,-1.357184172E0,-7.220356941E0,-8.003749847E-1
3.269605421E0,-1.148399830E0,-7.439520359E0,-9.665489197E-1
3.274429379E0,-7.009925246E-1,-7.551785946E0,-8.074045181E-1
3.279253286E0,-8.283289075E-1,-7.838321209E0,-8.681192398E-1
3.284077244E0,-1.171064734E0,-7.987643719E0,-1.047945976E0
3.288901150E0,-1.321087837E0,-7.803569794E0,-1.131579399E0
3.293725057E0,-1.339861870E0,-7.852251530E0,-1.245713234E0
3.298549015E0,-1.050992131E0,-8.111403465E0,-1.184859276E0
3.303372869E0,-9.451969266E-1,-8.446199417E0,-1.049791336E0
3.308196827E0,-9.197393656E-1,-8.555209160E0,-1.113177299E0
3.313020786E0,-9.777776599E-1,-8.379274368E0,-1.250615120E0
3.317844692E0,-1.160237074E0,-7.917051315E0,-1.108485222E0
3.322668650E0,-1.148302555E0,-7.725910664E0,-9.931774139E-1
3.327492557E0,-9.713567495E-1,-7.697993755E0,-9.048671722E-1
3.332316463E0,-8.608837724E-1,-7.651775837E0,-8.125925064E-1
3.337140421E0,-6.983578205E-1,-7.539845943E0,-7.594175339E-1
3.341964327E0,-8.293205500E-1,-7.229188919E0,-5.874681473E-1
3.346788234E0,-9.675241709E-1,-6.818817139E0,-3.612470627E-1
3.351612192E0,-9.035865068E-1,-6.541323662E0,-1.929273605E-1
3.356436098E0,-9.411530495E-1,-6.320468903E0,-1.036825180E-1
3.361260004E0,-9.897049665E-1,-6.132883549E0,-2.193450928E-5
3.366083963E0,-5.212984681E-1,-6.148639202E0,2.161064148E-1
3.370907869E0,-4.473790824E-1,-5.916698456E0,5.184383392E-1
3.375731827E0,-5.091978312E-1,-5.968114853E0,2.378768921E-1
3.380555734E0,-3.988276124E-1,-5.946697235E0,1.087751389E-1
3.385379640E0,-3.403802514E-1,-5.891328812E0,3.697614670E-1
3.390203598E0,-2.069414556E-1,-5.824032307E0,2.531270981E-1
3.395027504E0,-2.191066593E-1,-5.854785919E0,4.835700989E-2
3.399851463E0,-2.028752863E-1,-6.050206184E0,-1.131734848E-1
3.404675369E0,-2.231103927E-1,-6.192597866E0,-3.033704758E-1
3.409499275E0,-1.999601573E-1,-6.325136185E0,-3.693809509E-1
3.414323234E0,-1.289910078E-1,-6.645877838E0,-4.189100266E-1
3.419147140E0,-1.111081764E-1,-6.793652058E0,-5.259990692E-1
3.423971046E0,-1.562086493E-1,-6.990859985E0,-5.064811707E-1
3.428795004E0,-1.675669700E-1,-7.270491600E0,-4.009752274E-1
3.433618859E0,-2.422711104E-1,-7.479479790E0,-3.790683746E-1
3.438442869E0,-3.342922032E-1,-7.612893105E0,-3.520393372E-1
3.443266775E0,-3.669298291E-1,-7.642252445E0,-1.715993881E-1
3.448090682E0,-5.587633252E-1,-7.722713470E0,-2.225189209E-1
3.452914640E0,-5.112612247E-1,-7.613131046E0,-4.328155518E-2
3.457738546E0,-4.068908691E-1,-7.738969803E0,4.077816010E-2
3.462562452E0,-3.119986355E-1,-7.789367676E0,2.016172409E-1
3.467386411E0,-4.683571458E-1,-7.952935696E0,3.170061111E-1
3.472210317E0,-6.568697691E-1,-7.811395645E0,9.049224854E-2
3.477034275E0,-8.836839199E-1,-7.604217052E0,5.752372742E-2
3.481858182E0,-8.281665444E-1,-7.623112202E0,1.625661850E-1
3.486682088E0,-8.055172563E-1,-7.535668850E0,1.661844254E-1
3.491506046E0,-8.121222258E-1,-7.373360157E0,1.877689362E-1
3.496329952E0,-8.767016530E-1,-7.160420895E0,2.343788147E-1
3.501153859E0,-9.455800056E-1,-6.854311466E0,3.275508881E-1
3.505977817E0,-1.009786487E0,-6.496278763E0,5.127887726E-1
3.510801671E0,-1.093621254E0,-6.249221802E0,6.683301926E-1
3.515625682E0,-1.104647398E0,-6.268158436E0,5.674552917E-1
3.520449588E0,-1.024656534E0,-6.201416492E0,5.333280563E-1
3.525273494E0,-8.474588990E-1,-6.097073078E0,6.927042007E-1
3.530097452E0,-6.929280758E-1,-6.000668049E0,7.325010300E-1
3.534921359E0,-7.938665748E-1,-5.926352501E0,5.766735077E-1
3.539745265E0,-8.480502963E-1,-5.854705811E0,4.215679169E-1
3.544569223E0,-7.976691723E-1,-5.795023441E0,2.361822128E-1
3.549393129E0,-6.843544245E-1,-6.028536320E0,-6.309032440E-2
3.554217036E0,-6.643493772E-1,-6.181698799E0,-2.682399750E-1
3.559040994E0,-4.931142330E-1,-6.297112942E0,-4.081325531E-1
3.563864900E0,-2.833206654E-1,-6.386316776E0,-5.498161316E-1
3.568688859E0,-3.652366698E-1,-6.556302547E0,-7.697458267E-1
3.573512765E0,-5.552811027E-1,-6.696579933E0,-1.008047104E0
3.578336671E0,-3.795441389E-1,-6.964199543E0,-1.104585648E0
3.583160577E0,-3.106883466E-1,-7.348539829E0,-1.183775902E0
3.587984536E0,-3.477869034E-1,-7.607468605E0,-1.226488113E0
3.592808442E0,-2.138302922E-1,-7.731315613E0,-1.196940422E0
3.597632400E0,-2.806137204E-1,-7.791778564E0,-1.174071312E0
3.602456307E0,-4.076716006E-1,-7.764781475E0,-1.122009277E0
3.607280265E0,-5.253732204E-1,-7.738792419E0,-1.028905869E0
3.612104171E0,-5.191472173E-1,-7.961758614E0,-1.095677376E0
3.616928077E0,-5.273026824E-1,-7.957828522E0,-1.033118248E0
3.621752036E0,-5.269748569E-1,-8.102146149E0,-1.044819832E0
3.626575942E0,-4.756841660E-1,-8.141068459E0,-9.828433990E-1
3.631399900E0,-4.944039583E-1,-7.958217621E0,-8.618516922E-1
3.636223807E0,-2.249103189E-1,-7.831473351E0,-8.088865280E-1
3.641047713E0,-3.345451355E-1,-7.699083328E0,-5.873718262E-1
3.645871671E0,-4.733857512E-1,-7.325323582E0,-4.436397552E-1
3.650695577E0,-2.933567762E-1,-7.205710411E0,-3.370027542E-1
3.655519484E0,-2.820275426E-1,-7.013151646E0,-7.612609863E-2
3.660343442E0,-2.923777699E-1,-6.793939590E0,6.895446777E-2
3.665167348E0,-2.875108123E-1,-6.744407177E0,1.822614670E-1
3.669991307E0,-3.164327741E-1,-6.814375877E0,2.832078934E-1
3.674815213E0,-2.234202027E-1,-6.593485355E0,4.390478134E-1
3.679639119E0,-4.185474217E-1,-6.056848526E0,7.122383118E-1
3.684463077E0,-4.544508159E-1,-6.058213234E0,5.483322144E-1
3.689286984E0,-2.588091791E-1,-6.097616196E0,3.947572708E-1
3.694110890E0,-6.495928764E-2,-6.153710842E0,4.856615067E-1
3.698934848E0,3.094466031E-2,-6.260188103E0,4.741764069E-1
3.703758754E0,-5.668814480E-2,-6.242648125E0,3.484201431E-1
3.708582661E0,-8.811216801E-2,-6.407112122E0,1.992473602E-1
3.713406619E0,-1.214217767E-1,-6.354508877E0,-2.363491058E-2
3.718230525E0,-8.200642467E-2,-6.527044296E0,-6.693363190E-2
3.723054484E0,-1.225221306E-1,-6.883376598E0,-1.436214447E-1
3.727878390E0,-1.785196662E-1,-7.071689606E0,-3.181829453E-1
3.732702296E0,-1.741834730E-1,-7.197153568E0,-3.036928177E-1
3.737526254E0,-2.059157193E-1,-7.314630985E0,-2.006826401E-1
3.742350161E0,-4.516289234E-1,-7.715017319E0,-2.528972626E-1
3.747174119E0,-5.716583729E-1,-7.998215199E0,-3.309812546E-1
3.751998025E0,-4.494003057E-1,-7.985274315E0,-2.627820969E-1
3.756821932E0,-3.975995481E-1,-7.886926651E0,-1.105804443E-1
3.761645890E0,-5.784033537E-1,-7.920557976E0,8.488655090E-2
3.766469796E0,-7.574789524E-1,-8.162170410E0,1.108026505E-1
3.771293702E0,-8.082050085E-1,-8.188095093E0,-8.770656586E-2
3.776117661E0,-9.361777306E-1,-8.051107407E0,-3.258800507E-2
3.780941567E0,-1.023711920E0,-7.978462219E0,-1.583099365E-3
3.785765473E0,-1.044367671E0,-7.895818233E0,-5.464363098E-2
3.790589432E0,-1.137922764E0,-7.855716705E0,-9.386348724E-2
3.795413234E0,-1.173877954E0,-7.738747120E0,-1.026868820E-1
3.800237296E0,-1.105939388E0,-7.459200382E0,-5.023670197E-2
3.805061202E0,-1.171217203E0,-7.340042591E0,6.099224091E-2
3.809885109E0,-1.244521022E0,-7.094448566E0,6.612873077E-2
3.814709067E0,-1.295905828E0,-6.830562115E0,1.232070923E-1
3.819532973E0,-1.312444568E0,-6.624913216E0,2.490777969E-1
3.824356879E0,-1.335809708E0,-6.496688843E0,2.837619781E-1
3.829180838E0,-1.328460693E0,-6.390745163E0,2.562923431E-1
3.834004744E0,-1.333727598E0,-6.337879181E0,2.482233047E-1
3.838828702E0,-1.321769953E0,-6.132723808E0,3.505611420E-1
3.843652609E0,-1.104540110E0,-6.045585155E0,2.884197235E-1
3.848476515E0,-9.462692738E-1,-6.066587925E0,6.203651428E-2
3.853300473E0,-9.541127086E-1,-6.044761658E0,6.115627289E-2
3.858124379E0,-1.094591618E0,-5.894250393E0,-6.587409973E-2
3.862948286E0,-9.829770327E-1,-5.896918774E0,-2.760353088E-1
3.867772244E0,-7.578004599E-1,-6.147710323E0,-5.359230042E-1
3.872596150E0,-6.435868144E-1,-6.406701565E0,-7.763061523E-1
3.877420109E0,-7.841248512E-1,-6.599250793E0,-9.758224487E-1
3.882244015E0,-9.005718231E-1,-6.703724861E0,-1.060513496E0
3.887067921E0,-7.052761912E-1,-6.853594780E0,-1.200201035E0
3.891891879E0,-6.302806735E-1,-7.095934868E0,-1.313509941E0
3.896715734E0,-6.833754778E-1,-7.317885876E0,-1.304807663E0
3.901539692E0,-8.175268173E-1,-7.533318043E0,-1.360540390E0
3.906363650E0,-7.817510962E-1,-7.577079773E0,-1.332348824E0
3.911187557E0,-6.750025749E-1,-7.631037235E0,-1.184406281E0
3.916011463E0,-5.838602781E-1,-7.778537750E0,-1.096073151E0
3.920835421E0,-6.803199053E-1,-7.680489063E0,-8.713216782E-1
3.925659327E0,-6.366878748E-1,-7.781742096E0,-9.620628357E-1
3.930483286E0,-8.570578098E-1,-7.520810604E0,-9.019184113E-1
3.935307192E0,-7.204588652E-1,-7.593744755E0,-7.533540726E-1
3.940131098E0,-6.510636806E-1,-7.608423233E0,-5.357856750E-1
3.944955057E0,-6.637036800E-1,-7.505504608E0,-6.126537323E-1
3.949778963E0,-6.845744848E-1,-7.059257030E0,-3.408012390E-1
3.954602921E0,-4.934527576E-1,-6.956586361E0,-1.151142120E-1
3.959426827E0,-3.593046963E-1,-7.068276405E0,-3.355979919E-2
3.964250734E0,-5.530011058E-1,-6.785565853E0,1.550788879E-1
3.969074692E0,-6.656709909E-1,-6.324982166E0,3.265399933E-1
3.973898598E0,-7.254371047E-1,-5.969679832E0,5.072984695E-1
3.978722504E0,-6.496101618E-1,-5.705935478E0,7.738914490E-1
3.983546463E0,-5.028433800E-1,-5.925670624E0,7.438917160E-1
3.988370369E0,-4.473119080E-1,-6.007143021E0,6.926059723E-1
3.993194275E0,-5.696275234E-1,-5.678893566E0,8.447313309E-1
3.998018234E0,-5.237968564E-1,-5.713512897E0,7.769641876E-1
4.002842140E0,-5.800502896E-1,-5.854607582E0,4.560680389E-1
4.007666098E0,-4.951950610E-1,-5.782016754E0,5.131664276E-1
4.012490004E0,-3.950376511E-1,-6.026468277E0,3.789062500E-1
4.017313911E0,-3.214528561E-1,-5.954465866E0,2.517776489E-1
4.022137869E0,-2.945658565E-1,-6.020387650E0,3.157157898E-1
4.026961723E0,-3.612143397E-1,-6.257203102E0,6.142139435E-2
4.031785682E0,-3.586161733E-1,-6.334707260E0,-9.963798523E-2
4.036609640E0,-3.991294801E-1,-6.501265526E0,-2.173042297E-2
4.041433546E0,-4.545337558E-1,-6.746857643E0,-1.519374847E-1
4.046257504E0,-4.738729894E-1,-6.956120968E0,-2.484693527E-1
4.051081411E0,-5.322177410E-1,-6.987798691E0,-1.319818497E-1
4.055905317E0,-6.091721058E-1,-7.264561176E0,-2.781572342E-1
4.060729275E0,-4.989449680E-1,-7.026206017E0,-1.345148087E-1
4.065553182E0,-6.879845858E-1,-7.267107487E0,-1.386508942E-1
4.070377088E0,-4.806814194E-1,-7.190731049E0,-1.493673325E-1
4.075201046E0,-7.707777619E-1,-7.198547363E0,-1.133346558E-2
4.080024952E0,-9.100402594E-1,-7.476135254E0,-9.285831451E-2
4.084848859E0,-8.777208924E-1,-7.523371220E0,-2.433223724E-1
4.089672765E0,-8.872702122E-1,-7.502905369E0,-1.952638626E-1
4.094496723E0,-8.614308238E-1,-7.495748043E0,-2.885379791E-1
4.099320682E0,-9.942319393E-1,-7.262969017E0,-3.797597885E-1
4.104144588E0,-1.130478501E0,-7.149049282E0,-3.089570999E-1
4.108968494E0,-1.072795153E0,-6.967497349E0,-2.939720154E-1
4.113792452E0,-9.822996855E-1,-6.821166515E0,-3.133382797E-1
4.118616359E0,-9.309009314E-1,-6.667095661E0,-1.878051758E-1
4.123440265E0,-8.968185186E-1,-6.529343605E0,-1.493082047E-1
4.128264223E0,-8.673622608E-1,-6.405541897E0,-1.522026062E-1
4.133088129E0,-9.011141062E-1,-6.255132198E0,-8.152389526E-2
4.137912088E0,-8.500146270E-1,-5.842023849E0,1.106920242E-1
4.142735994E0,-7.231360078E-1,-5.518346786E0,3.074769974E-1
4.147559900E0,-7.854567766E-1,-5.644617081E0,1.003999710E-1
4.152383859E0,-6.377637386E-1,-5.735096931E0,1.347827911E-2
4.157207765E0,-5.978505015E-1,-5.651225090E0,-4.654216766E-2
4.162031671E0,-6.270303130E-1,-5.715560913E0,-2.803983688E-1
4.166855629E0,-4.702004790E-1,-5.729479313E0,-3.151063919E-1
4.171679536E0,-3.381473422E-1,-5.766952991E0,-4.520902634E-1
4.176503494E0,-1.992438883E-1,-5.885119915E0,-6.674213409E-1
4.181327400E0,-1.010430306E-1,-6.231572628E0,-8.176908493E-1
4.186151307E0,-1.332209259E-1,-6.471011639E0,-9.651651382E-1
4.190975265E0,-1.824061573E-1,-6.546013355E0,-1.119433403E0
4.195799171E0,-1.698025912E-1,-6.695614338E0,-1.113204002E0
4.200623077E0,-1.249780804E-1,-6.828733921E0,-1.121107101E0
4.205447036E0,-1.015303731E-1,-6.964287758E0,-1.123954773E0
4.210270942E0,-1.571458429E-1,-7.032943726E0,-1.085819244E0
4.215094900E0,-2.614301741E-1,-7.099236012E0,-1.001877785E0
4.219918807E0,-1.974283159E-1,-7.334877014E0,-9.725303650E-1
4.224742713E0,-1.543720365E-1,-7.619815826E0,-8.734426498E-1
4.229566671E0,-2.104290426E-1,-7.629139900E0,-7.979288101E-1
4.234390577E0,-1.184083223E-1,-7.740970612E0,-5.095434189E-1
4.239214484E0,-1.516397595E-1,-7.823872089E0,-3.600769043E-1
4.244038442E0,-2.579640150E-1,-7.770599365E0,-5.358810425E-1
4.248862348E0,-1.416053176E-1,-7.751499653E0,-2.458057404E-1
4.253686254E0,-7.480728626E-2,-7.587857723E0,-3.794384003E-2
4.258510213E0,-1.675195694E-1,-7.263971329E0,1.361370087E-2
4.263334119E0,-4.261404872E-1,-7.043429852E0,1.623678207E-1
4.268158077E0,-4.371063709E-1,-7.081665516E0,1.787433624E-1
4.272981984E0,-4.465262890E-1,-6.958123207E0,2.039384842E-1
4.277805890E0,-4.229593873E-1,-6.642693520E0,4.578571320E-1
4.282629848E0,-4.822565317E-1,-6.408610344E0,6.153335571E-1
4.287453754E0,-6.344931722E-1,-6.344593048E0,5.810709000E-1
4.292277661E0,-6.776468158E-1,-6.393097878E0,5.872650146E-1
4.297101619E0,-4.803952575E-1,-6.539564133E0,6.243877411E-1
4.301925525E0,-3.874962628E-1,-6.139560699E0,7.976970673E-1
4.306749432E0,-3.842366338E-1,-5.849279881E0,1.028294563E0
4.311573390E0,-3.808076382E-1,-6.048372269E0,8.764457703E-1
4.316397296E0,-3.554942310E-1,-6.227003098E0,6.509943008E-1
4.321221254E0,-4.052020311E-1,-5.919665337E0,6.842346191E-1
4.326045161E0,-5.204167366E-1,-5.894191265E0,6.770706177E-1
4.330869067E0,-5.278540254E-1,-6.256826401E0,2.758188248E-1
4.335693025E0,-6.362273097E-1,-6.244575500E0,3.775119781E-2
4.340516932E0,-6.368977427E-1,-6.450033188E0,-1.584720612E-2
4.345340838E0,-5.852417946E-1,-6.693045616E0,-2.030572891E-1
4.350164796E0,-5.724118352E-1,-6.793961525E0,-2.727441788E-1
4.354988702E0,-5.678554177E-1,-6.900739193E0,-2.727890015E-1
4.359812609E0,-6.587200165E-1,-7.289693832E0,-4.612922668E-1
4.364636567E0,-6.390084028E-1,-7.474720478E0,-4.006137848E-1
4.369460473E0,-8.216218948E-1,-7.692174911E0,-3.730192184E-1
4.374284432E0,-7.426767349E-1,-7.666856766E0,-4.692850113E-1
4.379108338E0,-9.227139950E-1,-7.587533474E0,-4.359531403E-1
4.383932244E0,-9.830617309E-1,-7.573521137E0,-3.879518509E-1
4.388756202E0,-9.001964927E-1,-7.667369843E0,-5.285749435E-1
4.393580109E0,-8.783684969E-1,-7.710910797E0,-3.941965103E-1
4.398404015E0,-9.670155048E-1,-7.725412846E0,-4.704904556E-1
4.403227973E0,-1.140566587E0,-7.579362392E0,-5.828905106E-1
4.408051879E0,-1.140495420E0,-7.464279652E0,-5.403823853E-1
4.412875838E0,-1.073538303E0,-7.427878380E0,-5.631761551E-1
4.417699744E0,-1.131065845E0,-7.314770222E0,-5.651998520E-1
4.422523650E0,-1.150383711E0,-7.032226086E0,-4.006757736E-1
4.427347609E0,-1.110034227E0,-6.757595539E0,-3.421974182E-1
4.432171515E0,-1.137868643E0,-6.474454403E0,-2.914686203E-1
4.436995421E0,-1.162617445E0,-6.216454983E0,-1.789541245E-1
4.441819379E0,-1.182184339E0,-5.969640255E0,-9.771060944E-2
4.446643286E0,-1.192937493E0,-6.075405121E0,-1.909275055E-1
4.451467192E0,-1.054615021E0,-5.919297218E0,-1.308240891E-1
4.456291150E0,-7.869919538E-1,-5.614641190E0,4.668807983E-2
4.461115057E0,-7.367825508E-1,-5.601409435E0,-4.799938202E-2
4.465939015E0,-6.436740160E-1,-5.652271748E0,-1.181898117E-1
4.470762921E0,-6.195165515E-1,-5.669194698E0,-1.735029221E-1
4.475586827E0,-5.713227987E-1,-5.812187195E0,-3.574438095E-1
4.480410786E0,-5.102326274E-1,-6.011554718E0,-5.265769958E-1
4.485234692E0,-5.260759592E-1,-6.169082165E0,-6.475772858E-1
4.490058598E0,-4.603506327E-1,-6.253640175E0,-7.134408951E-1
4.494882557E0,-3.963087499E-1,-6.308540344E0,-7.314805984E-1
4.499706463E0,-3.690410852E-1,-6.402915955E0,-7.687282562E-1
4.504530421E0,-3.690909743E-1,-6.500888824E0,-8.395032883E-1
4.509354327E0,-3.609896600E-1,-6.659754753E0,-8.553085327E-1
4.514178234E0,-4.124461412E-1,-6.879147053E0,-8.472166061E-1
4.519002192E0,-4.360281825E-1,-6.960712910E0,-7.721462250E-1
4.523826098E0,-4.024012387E-1,-6.945350647E0,-6.707134247E-1
4.528650004E0,-3.707551062E-1,-7.081614017E0,-6.073875427E-1
4.533473963E0,-6.234269142E-1,-7.211561680E0,-5.605306625E-1
4.538297869E0,-3.935334086E-1,-7.048969746E0,-3.843202591E-1
4.543121827E0,-3.550138772E-1,-7.093649864E0,-2.844448090E-1
4.547945734E0,-5.971630216E-1,-7.199770451E0,-1.485157013E-1
4.552769640E0,-5.303515792E-1,-7.402958870E0,-1.463737488E-1
4.557593598E0,-6.857849956E-1,-7.134720802E0,-1.560525894E-1
4.562417504E0,-6.447321177E-1,-6.929190636E0,3.737449646E-2
4.567241411E0,-4.309845269E-1,-7.223507404E0,1.920118332E-1
4.572065369E0,-7.112747431E-1,-7.063828945E0,1.596422195E-1
4.576889275E0,-7.846496105E-1,-6.921914101E0,1.101102829E-1
4.581713182E0,-7.853462696E-1,-6.788492203E0,2.250251770E-1
4.586537140E0,-8.156734705E-1,-6.470562458E0,3.679647446E-1
4.591361046E0,-8.433614969E-1,-6.172350407E0,5.843534470E-1
4.596184952E0,-8.931267262E-1,-5.774861336E0,7.546987534E-1
4.601008911E0,-9.125123024E-1,-5.603761196E0,8.648347855E-1
4.605832817E0,-8.637048602E-1,-5.701734066E0,7.715663910E-1
4.610656775E0,-8.217384815E-1,-5.592993736E0,7.118139267E-1
4.615480682E0,-8.776218891E-1,-5.626691818E0,7.429628372E-1
4.620304588E0,-7.016649842E-1,-5.602028847E0,6.617927551E-1
4.625128546E0,-5.654388070E-1,-5.471481323E0,6.142091751E-1
4.629952452E0,-5.850740671E-1,-5.591016769E0,6.097230911E-1
4.634776359E0,-6.202011704E-1,-5.899922848E0,3.041553497E-1
4.639600317E0,-5.738627315E-1,-5.822052956E0,1.734275818E-1
4.644424223E0,-6.382392049E-1,-5.814099312E0,2.244806290E-1
4.649248129E0,-6.831552982E-1,-6.037950039E0,-1.847457886E-2
4.654072088E0,-6.890339851E-1,-6.203471184E0,-2.897615433E-1
4.658895994E0,-6.938685775E-1,-6.281600952E0,-3.670339584E-1
4.663719952E0,-6.623848677E-1,-6.389031887E0,-4.225206375E-1
4.668543859E0,-7.219148874E-1,-6.599170208E0,-5.947532654E-1
4.673367765E0,-7.509788275E-1,-6.612814903E0,-6.158189774E-1
4.678191723E0,-6.181192398E-1,-6.633060455E0,-5.455732346E-1
4.683015629E0,-7.370690107E-1,-7.237048149E0,-7.114810944E-1
4.687839536E0,-6.867126226E-1,-7.231290340E0,-6.735363007E-1
4.692663494E0,-5.154575109E-1,-7.068338394E0,-5.969896317E-1
4.697487400E0,-8.030606508E-1,-7.013180733E0,-5.918998718E-1
4.702311307E0,-9.412357807E-1,-7.174801350E0,-7.538919449E-1
4.707135265E0,-8.698930740E-1,-7.086916447E0,-8.463468552E-1
4.711959171E0,-8.916441798E-1,-7.058183670E0,-8.575735092E-1
4.716783129E0,-7.952510715E-1,-7.019213200E0,-7.878646851E-1
4.721607036E0,-6.992838383E-1,-6.733754158E0,-6.709575653E-1
4.726430942E0,-6.808651686E-1,-6.489295959E0,-5.524396896E-1
4.731254900E0,-6.945063472E-1,-6.441262245E0,-5.566215515E-1
4.736078807E0,-7.182601094E-1,-6.398262024E0,-5.566616058E-1
4.740902713E0,-7.395321727E-1,-6.353205204E0,-4.736337662E-1
4.745726671E0,-7.672926188E-1,-6.270441055E0,-4.031438828E-1
4.750550577E0,-6.908168197E-1,-6.169362068E0,-3.856821060E-1
4.755374536E0,-5.740519762E-1,-5.900027275E0,-2.513837814E-1
4.760198442E0,-5.134189725E-1,-5.730497360E0,-1.388311386E-1
4.765022348E0,-3.404198587E-1,-5.670628071E0,9.490013123E-3
4.769846307E0,-2.332851291E-2,-5.584609509E0,7.652759552E-2
4.774670213E0,-4.947319627E-2,-5.456355095E0,2.083072662E-1
4.779494119E0,-2.560681105E-2,-5.536992073E0,1.443519592E-1
4.784318077E0,-1.441237628E-1,-5.468185425E0,3.549003601E-2
4.789141932E0,-3.062653542E-2,-5.415241241E0,-2.987384796E-2
4.793965890E0,2.517670393E-3,-5.674265862E0,-1.880960464E-1
4.798789848E0,-9.797208756E-2,-5.967264652E0,-3.602600098E-1
4.803613754E0,-7.995487005E-2,-6.083874226E0,-4.460458755E-1
4.808437713E0,-5.718283355E-3,-6.222648621E0,-5.029687881E-1
4.813261619E0,8.115157485E-2,-6.357110500E0,-5.406351089E-1
4.818085525E0,1.487561613E-1,-6.527787209E0,-5.017070770E-1
4.822909484E0,1.319946200E-1,-6.703484058E0,-4.794416428E-1
4.827733390E0,-1.355360150E-1,-6.774243832E0,-5.239305496E-1
4.832557296E0,-1.927421838E-1,-6.842858315E0,-5.274534225E-1
4.837381254E0,-1.369120181E-1,-6.761289120E0,-3.848285675E-1
4.842205161E0,-4.672417045E-2,-6.788042545E0,-2.037324905E-1
4.847029067E0,1.385740787E-1,-7.161602020E0,-7.983207703E-2
4.851853025E0,-1.981154382E-1,-7.264753819E0,-1.444778442E-1
4.856676932E0,-4.857377410E-1,-7.238738060E0,-1.751804352E-1
4.861500890E0,-4.075272083E-1,-7.360953808E0,-5.982780457E-2
4.866324796E0,-2.466304302E-1,-7.425774574E0,3.387260437E-2
4.871148702E0,-3.471601605E-1,-7.366503716E0,1.343832016E-1
4.875972661E0,-4.308903217E-1,-7.441265106E0,1.148147583E-1
4.880796567E0,-7.506062984E-1,-7.188930511E0,4.932975769E-2
4.885620473E0,-8.030561209E-1,-6.959023476E0,7.403469086E-2
4.890444432E0,-7.238577604E-1,-6.895009041E0,1.671447754E-1
4.895268338E0,-7.689552903E-1,-6.681407928E0,2.281780243E-1
4.900092244E0,-8.063255548E-1,-6.474202156E0,3.002328873E-1
4.904916202E0,-7.780960798E-1,-6.326213360E0,4.072856903E-1
4.909740109E0,-8.144503236E-1,-6.189774990E0,4.658355713E-1
4.914564015E0,-8.898814917E-1,-5.991269112E0,5.549964905E-1
4.919387973E0,-7.860900760E-1,-6.017542362E0,6.581687927E-1
4.924211879E0,-8.675484657E-1,-5.673609257E0,6.728715897E-1
4.929035838E0,-8.708672523E-1,-5.521654606E0,6.949939728E-1
4.933859744E0,-7.893257141E-1,-5.654298782E0,5.143337250E-1
4.938683650E0,-5.649210215E-1,-5.755602360E0,3.653697968E-1
4.943507609E0,-6.003074050E-1,-5.799109936E0,3.484573364E-1
4.948331515E0,-7.582281232E-1,-6.023259640E0,1.049957275E-1
4.953155421E0,-7.108837366E-1,-5.768238068E0,-2.540874481E-2
4.957979379E0,-6.482315660E-1,-5.777661800E0,-1.720123291E-1
4.962803286E0,-6.317888498E-1,-5.988327980E0,-3.993759155E-1
4.967627192E0,-5.425592661E-1,-6.322901249E0,-5.736207962E-1
4.972451150E0,-5.623354912E-1,-6.563026905E0,-6.804895401E-1
4.977275057E0,-7.604793310E-1,-6.825141430E0,-8.586673737E-1
4.982099015E0,-9.289169312E-1,-7.048603535E0,-1.088912010E0
4.986922921E0,-7.874646187E-1,-7.023046017E0,-1.053286552E0
4.991746827E0,-4.852640033E-1,-6.772874355E0,-8.309879303E-1
4.996570786E0,-6.707816124E-1,-6.990675926E0,-9.838323593E-1
5.001394640E0,-6.996905208E-1,-7.199950695E0,-9.879827499E-1
5.006218598E0,-5.932514668E-1,-7.416869164E0,-9.274129868E-1
5.011042557E0,-7.265207767E-1,-7.610059738E0,-9.218206406E-1
5.015866463E0,-7.539474368E-1,-7.433090210E0,-9.425649643E-1
5.020690421E0,-8.565561771E-1,-7.259489059E0,-9.371776581E-1
5.025514275E0,-8.189408183E-1,-7.249359131E0,-8.748025894E-1
5.030338234E0,-6.961516738E-1,-7.249718666E0,-7.604818344E-1
5.035162192E0,-6.615641117E-1,-7.017336845E0,-6.087284088E-1
5.039986046E0,-7.153097987E-1,-6.801385880E0,-5.797252655E-1
5.044810004E0,-8.114007115E-1,-6.600006580E0,-4.533910751E-1
5.049633963E0,-7.444042563E-1,-6.430434704E0,-2.727994919E-1
5.054457869E0,-5.768635273E-1,-6.145186901E0,-4.747676849E-2
5.059281775E0,-4.367709756E-1,-5.714408398E0,2.920188904E-1
5.064105734E0,-6.716810465E-1,-5.523598671E0,3.610849380E-1
5.068929640E0,-6.342300177E-1,-5.675100327E0,2.510395050E-1
5.073753598E0,-6.468209028E-1,-5.624007225E0,3.446397781E-1
5.078577504E0,-6.483238935E-1,-5.335377693E0,4.720544815E-1
5.083401411E0,-5.890464783E-1,-5.421493053E0,2.843065262E-1
5.088225369E0,-5.063940287E-1,-5.635571003E0,1.115283966E-1
5.093049275E0,-3.185791373E-1,-5.736179829E0,1.543655396E-1
5.097873182E0,-2.632599771E-1,-5.618599415E0,1.591348648E-1
5.102697140E0,-3.806519508E-1,-5.593879700E0,7.319736481E-2
5.107521046E0,-4.677332938E-1,-5.829012394E0,-1.345214844E-1
5.112344952E0,-4.521534145E-1,-5.802608967E0,-2.895021439E-1
5.117168911E0,-3.981492221E-1,-5.828229904E0,-2.365350723E-1
5.121992817E0,-3.849442005E-1,-6.117938995E0,-2.937126160E-1
5.126816775E0,-4.084470272E-1,-6.372439861E0,-4.226131439E-1
5.131640682E0,-4.008607268E-1,-6.620077133E0,-4.151430130E-1
5.136464588E0,-3.683057427E-1,-6.903541565E0,-4.147672653E-1
5.141288546E0,-5.474845171E-1,-6.868954659E0,-4.261541367E-1
5.146112400E0,-7.211758494E-1,-6.767778397E0,-3.679227829E-1
5.150936359E0,-6.127044559E-1,-6.855657101E0,-2.544183731E-1
5.155760317E0,-3.943325579E-1,-6.981734276E0,-6.422042847E-2
5.160584223E0,-4.885332882E-1,-7.109905720E0,-4.601001740E-2
5.165408182E0,-7.324254513E-1,-6.932154179E0,-1.183538437E-1
5.170232088E0,-5.613296032E-1,-6.972373486E0,4.128742218E-2
5.175055994E0,-5.339431167E-1,-7.160796642E0,2.364053726E-1
5.179879952E0,-7.910411358E-1,-7.064606190E0,2.950096130E-2
5.184703859E0,-1.013578415E0,-6.844730854E0,-4.366970062E-2
5.189527765E0,-1.080113888E0,-6.322613716E0,1.671915054E-1
5.194351723E0,-1.053823948E0,-6.203822136E0,2.123479843E-1
5.199175629E0,-1.033106089E0,-6.184290886E0,2.712202072E-1
5.203999536E0,-1.058259726E0,-6.101539135E0,2.721242905E-1
5.208823494E0,-1.040261745E0,-5.998690128E0,2.271585464E-1
5.213647400E0,-1.014581800E0,-5.995200634E0,2.894220352E-1
5.218471307E0,-1.072974682E0,-5.902211189E0,3.466110229E-1
5.223295265E0,-1.166665554E0,-5.400305748E0,4.897356033E-1
5.228119171E0,-1.006619096E0,-5.195231915E0,5.634679794E-1
5.232943129E0,-8.929489851E-1,-5.179005146E0,4.221944809E-1
5.237767036E0,-9.184048176E-1,-5.267170906E0,3.291578293E-1
5.242590942E0,-1.002871275E0,-5.191855907E0,1.648416519E-1
5.247414900E0,-8.407700658E-1,-5.361553192E0,-1.185197830E-1
5.252238807E0,-6.855784059E-1,-5.753773689E0,-2.388067245E-1
5.257062713E0,-6.959209442E-1,-5.885063171E0,-3.396425247E-1
5.261886671E0,-6.389165521E-1,-5.698534966E0,-4.211015701E-1
5.266710577E0,-4.829504192E-1,-5.665144920E0,-4.234924316E-1
5.271534484E0,-5.663102865E-1,-5.915614128E0,-6.623802185E-1
5.276358442E0,-6.680764556E-1,-5.997592926E0,-8.602447510E-1
5.281182348E0,-7.093330622E-1,-6.068550587E0,-8.976106644E-1
5.286006307E0,-5.676308870E-1,-6.180740356E0,-9.060773849E-1
5.290830213E0,-4.290019572E-1,-6.340784550E0,-9.573268890E-1
5.295654119E0,-3.738012910E-1,-6.605608940E0,-1.022589684E0
5.300478077E0,-2.530235350E-1,-6.535443306E0,-8.986949921E-1
5.305301984E0,-2.927842736E-1,-6.491641045E0,-8.033494949E-1
5.310125890E0,-4.835620821E-1,-6.607796669E0,-8.440408707E-1
5.314949848E0,-6.040970087E-1,-6.720749378E0,-8.724393845E-1
5.319773754E0,-5.376826525E-1,-6.775551319E0,-8.289146423E-1
5.324597661E0,-4.067125320E-1,-6.937034130E0,-7.782268524E-1
5.329421619E0,-2.190303504E-1,-6.849415779E0,-6.106576920E-1
5.334245525E0,-3.907689452E-1,-6.675910950E0,-5.056829453E-1
5.339069432E0,-5.342000127E-1,-6.531766415E0,-4.680576324E-1
5.343893390E0,-5.875805616E-1,-6.419494152E0,-3.830442429E-1
5.348717296E0,-6.301096082E-1,-6.341813087E0,-3.128776550E-1
5.353541254E0,-5.834956169E-1,-6.265457153E0,-2.862510681E-1
5.358365161E0,-5.197913647E-1,-6.138119221E0,-1.621074677E-1
5.363189067E0,-3.244951963E-1,-5.881843567E0,5.466365814E-2
5.368013025E0,-1.403430700E-1,-5.569308758E0,3.234033585E-1
5.372836932E0,-2.795053124E-1,-5.435347080E0,4.267787933E-1
5.377660838E0,-5.107835531E-1,-5.272098541E0,3.317298889E-1
5.382484796E0,-5.765584707E-1,-5.352037430E0,2.417125702E-1
5.387308702E0,-3.955583870E-1,-5.586348534E0,1.519412994E-1
5.392132609E0,-2.329505682E-1,-5.606861115E0,1.723451614E-1
5.396956567E0,-1.870247722E-2,-5.614899158E0,2.860469818E-1
5.401780473E0,-2.070949972E-2,-5.503343105E0,2.826318741E-1
5.406604432E0,-9.072460234E-2,-5.356346130E0,2.171936035E-1
5.411428338E0,-1.319333762E-1,-5.560819626E0,1.112966537E-1
5.416252244E0,-1.627269387E-1,-5.939023018E0,-1.234474182E-1
5.421076202E0,-1.566901654E-1,-6.077159882E0,-1.953353882E-1
5.425900109E0,-1.541292071E-1,-6.111708164E0,-1.738805771E-1
5.430724015E0,-1.740337312E-1,-6.169458389E0,-1.954011917E-1
5.435547973E0,-1.952089816E-1,-6.255098820E0,-2.024536133E-1
5.440371879E0,-2.016145587E-1,-6.332602501E0,-1.615514755E-1
5.445195786E0,-1.707297266E-1,-6.428130150E0,-1.635246277E-1
5.450019744E0,-1.069255471E-1,-6.691854477E0,-1.389865875E-1
5.454843650E0,-1.884685457E-1,-6.869970322E0,-1.333599091E-1
5.459667609E0,-3.484706283E-1,-6.668974876E0,-5.817699432E-2
5.464491515E0,-2.924768925E-1,-6.560295105E0,6.730747223E-2
5.469315421E0,-2.365082204E-1,-6.961495399E0,9.475326538E-2
5.474139379E0,-5.251680613E-1,-7.082799911E0,-6.824493408E-3
5.478963286E0,-7.023649812E-1,-6.948646545E0,-5.810642242E-2
5.483787192E0,-5.319566727E-1,-6.860484123E0,2.780914307E-3
5.488611150E0,-5.077912211E-1,-6.791974545E0,5.608177185E-2
5.493435057E0,-6.625565290E-1,-6.361227989E0,1.925897598E-1
5.498258963E0,-7.280790806E-1,-6.150959492E0,2.288999557E-1
5.503082921E0,-7.697314024E-1,-6.209208965E0,1.126298904E-1
5.507906827E0,-8.704071045E-1,-6.201399326E0,2.777099609E-2
5.512730786E0,-9.507697225E-1,-6.111474991E0,3.104019165E-2
5.517554692E0,-9.374513030E-1,-6.042125702E0,6.818771362E-4
5.522378598E0,-8.879634142E-1,-5.900722027E0,-2.503871918E-2
5.527202504E0,-8.708832860E-1,-5.685643673E0,1.334190369E-3
5.532026463E0,-8.137006164E-1,-5.525632858E0,3.436565399E-2
5.536850369E0,-7.159358859E-1,-5.382347584E0,4.321575165E-2
5.541674327E0,-5.086460710E-1,-5.310267925E0,-9.842872620E-3
5.546498234E0,-6.434189081E-1,-5.313279152E0,-1.027631760E-1
5.551322140E0,-5.555991530E-1,-5.174786568E0,-1.615610123E-1
5.556146098E0,-4.506210685E-1,-5.154600143E0,-2.648038864E-1
5.560970004E0,-3.517430425E-1,-5.545241833E0,-3.954496384E-1
5.565793911E0,-2.319555283E-1,-5.538801193E0,-5.128974915E-1
5.570617869E0,-1.877916455E-1,-5.231469154E0,-4.535017014E-1
5.575441775E0,-1.660481095E-1,-5.247338772E0,-4.678430557E-1
5.580265734E0,-1.401888132E-1,-5.604455948E0,-7.071075439E-1
5.585089640E0,-5.102562904E-2,-5.706478119E0,-7.968482971E-1
5.589913546E0,-2.010071278E-2,-5.624358654E0,-7.691202164E-1
5.594737504E0,2.172613144E-2,-5.601674557E0,-7.506170273E-1
5.599561411E0,7.607609034E-2,-5.645064831E0,-7.459888458E-1
5.604385317E0,1.443255544E-1,-5.637535095E0,-7.052783966E-1
5.609209275E0,1.095605493E-1,-5.631734848E0,-6.857166290E-1
5.614033182E0,5.990576744E-2,-5.731944084E0,-7.155752182E-1
5.618857140E0,3.775477409E-2,-5.979632854E0,-7.659196854E-1
5.623681046E0,4.221445322E-2,-6.053163528E0,-7.748889923E-1
5.628504952E0,1.497882605E-1,-5.776495457E0,-6.148433685E-1
5.633328859E0,2.602300644E-1,-5.824007988E0,-5.365447998E-1
5.638152817E0,2.979363203E-1,-6.069439888E0,-5.134553909E-1
5.642976671E0,3.071056604E-1,-6.079412937E0,-4.195966721E-1
5.647800682E0,3.484947681E-1,-5.903922558E0,-2.961626053E-1
5.652624588E0,5.154600739E-1,-5.772697449E0,-1.650266647E-1
5.657448494E0,3.403121233E-1,-5.645484924E0,-5.474662781E-2
5.662272452E0,1.946783066E-1,-5.508496284E0,2.065563202E-2
5.667096359E0,2.747811079E-1,-5.428733349E0,1.348791122E-1
5.671920317E0,4.451040030E-1,-5.351417065E0,2.138767242E-1
5.676744223E0,6.894365549E-1,-5.265074730E0,3.217744827E-1
5.681568129E0,5.036914349E-1,-5.231479645E0,3.945236206E-1
5.686392088E0,2.691798210E-1,-5.169936657E0,3.449754715E-1
5.691215994E0,3.859965801E-1,-4.933977127E0,3.712148666E-1
5.696039900E0,4.803858399E-1,-4.667946339E0,5.392560959E-1
5.700863859E0,5.702142119E-1,-4.777869225E0,5.040235519E-1
5.705687765E0,8.025671840E-1,-4.883337021E0,4.001007080E-1
5.710511671E0,8.307095170E-1,-5.048160076E0,3.753442764E-1
5.715335629E0,7.028650045E-1,-5.257385731E0,2.276296616E-1
5.720159536E0,6.633281708E-1,-5.296956539E0,1.384782791E-1
5.724983442E0,6.789890528E-1,-5.317876816E0,1.217746735E-1
5.729807400E0,6.360061169E-1,-5.317777157E0,5.839920044E-2
5.734631307E0,6.488957405E-1,-5.341817856E0,2.475833893E-2
5.739455213E0,6.886396408E-1,-5.444122791E0,2.305316925E-2
5.744279171E0,7.331409454E-1,-5.573999405E0,-2.764797211E-2
5.749103077E0,8.170065880E-1,-5.716698170E0,-4.393672943E-2
5.753927036E0,8.816479445E-1,-5.886052608E0,-3.570652008E-2
5.758750942E0,9.874855876E-1,-6.053094864E0,-2.230739594E-2
5.763574848E0,9.150804281E-1,-6.129833221E0,1.273536682E-2
5.768398807E0,7.746415734E-1,-6.100447178E0,2.410984039E-2
5.773222713E0,7.217866778E-1,-6.259655476E0,-9.552955627E-3
5.778046619E0,5.868455172E-1,-6.306641579E0,-8.320903778E-2
5.782870577E0,4.229831696E-1,-6.062300205E0,-1.616191864E-2
5.787694484E0,4.050823450E-1,-5.939455986E0,2.807617188E-3
5.792518442E0,4.590619802E-1,-6.052850246E0,-6.177234650E-2
5.797342348E0,4.364922047E-1,-6.153351784E0,-1.097068787E-1
5.802166254E0,4.107189178E-1,-6.172087193E0,-1.484508514E-1
5.806990161E0,3.910855055E-1,-6.055113792E0,-1.425619125E-1
5.811814119E0,4.147489071E-1,-5.945899010E0,-1.044387817E-1
5.816638025E0,4.901174307E-1,-5.903675079E0,-1.033124924E-1
5.821461984E0,4.883670807E-1,-5.863578796E0,-9.146213531E-2
5.826285890E0,4.770811796E-1,-5.849290848E0,-1.092119217E-1
5.831109796E0,4.478589296E-1,-5.763277531E0,-1.181392670E-1
5.835933754E0,4.968560934E-1,-5.478349686E0,-3.503799438E-2
5.840757661E0,5.724467039E-1,-5.340330601E0,-5.152702332E-3
5.845581567E0,5.992462635E-1,-5.433197498E0,-1.132841110E-1
5.850405525E0,5.619046688E-1,-5.538737297E0,-1.540498734E-1
5.855229432E0,6.179765463E-1,-5.820186615E0,-2.750577927E-1
5.860053338E0,6.279131174E-1,-5.801146984E0,-3.378295898E-1
5.864877192E0,6.390595436E-1,-5.614777088E0,-3.164701462E-1
5.869701202E0,6.694051027E-1,-5.480999470E0,-3.775863647E-1
5.874525161E0,7.709457874E-1,-5.446697235E0,-3.852825165E-1
5.879349067E0,8.506935835E-1,-5.764503956E0,-4.705314636E-1
5.884172973E0,8.264392614E-1,-6.046481133E0,-6.208066940E-1
5.888996932E0,7.832036018E-1,-6.086431980E0,-7.049674988E-1
5.893820838E0,7.711888552E-1,-6.099917412E0,-6.974935532E-1
5.898644744E0,8.089718819E-1,-6.122663975E0,-6.988792419E-1
5.903468702E0,8.245477676E-1,-6.185417652E0,-6.877870560E-1
5.908292609E0,8.720079660E-1,-6.304316998E0,-6.786842346E-1
5.913116567E0,8.580706716E-1,-6.336478710E0,-6.455478668E-1
5.917940473E0,8.374058008E-1,-6.311189651E0,-6.005105972E-1
5.922764379E0,7.717484236E-1,-6.307320595E0,-5.532255173E-1
5.927588338E0,7.484573126E-1,-6.436140537E0,-5.323047638E-1
5.932412244E0,7.632691860E-1,-6.516144753E0,-4.689340591E-1
5.937236150E0,7.601756454E-1,-6.578678608E0,-4.110898972E-1
5.942060109E0,7.264204025E-1,-6.628708839E0,-3.422613144E-1
5.946884015E0,6.829981804E-1,-6.657114029E0,-2.863559723E-1
5.951707921E0,6.296421885E-1,-6.671324253E0,-2.385644913E-1
5.956531879E0,5.592664480E-1,-6.484569073E0,-1.205120087E-1
5.961355786E0,5.382944345E-1,-6.319769382E0,-3.972053528E-3
5.966179692E0,6.107345819E-1,-6.262448311E0,8.963871002E-2
5.971003650E0,8.170136213E-1,-6.210010052E0,2.030496597E-1
5.975827557E0,7.885503769E-1,-6.164988518E0,3.100767136E-1
5.980651515E0,5.359818935E-1,-6.096916199E0,3.113489151E-1
5.985475421E0,4.063779712E-1,-6.008598804E0,3.289289474E-1
5.990299327E0,3.495941162E-1,-6.009626865E0,3.248186111E-1
5.995123286E0,3.750205636E-1,-5.973649502E0,3.562231064E-1
5.999947192E0,4.326225519E-1,-5.920310497E0,4.134168625E-1
6.004771098E0,5.484002829E-1,-5.892686844E0,4.511308670E-1
6.009595057E0,4.478043914E-1,-5.874122620E0,4.388113022E-1
6.014418963E0,3.026232719E-1,-5.859927177E0,4.078664780E-1
6.019242869E0,1.880078912E-1,-5.864305973E0,3.490552902E-1
6.024066827E0,1.921232939E-1,-5.877522469E0,2.697658539E-1
6.028890734E0,2.572247386E-1,-5.963495255E0,1.891441345E-1
6.033714692E0,2.833712697E-1,-6.002712250E0,1.261873245E-1
6.038538598E0,3.019517660E-1,-6.026401997E0,9.973430634E-2
6.043362504E0,2.941433191E-1,-6.060635567E0,6.676959991E-2
6.048186463E0,2.813060284E-1,-6.121669769E0,3.444385529E-2
6.053010369E0,2.372480631E-1,-6.211584091E0,7.486343384E-3
6.057834275E0,2.019521594E-1,-6.289560318E0,-3.317832947E-2
6.062658234E0,1.039312482E-1,-6.343547344E0,-8.981895447E-2
6.067482140E0,-9.615761042E-2,-6.361706257E0,-1.622438431E-1
6.072306046E0,-2.409141064E-1,-6.386929035E0,-2.408180237E-1
6.077130004E0,-6.921172142E-2,-6.281350613E0,-1.998672485E-1
6.081953911E0,2.316296101E-3,-6.266654968E0,-1.591243744E-1
6.086777817E0,-7.329738140E-2,-6.289678097E0,-1.874294281E-1
6.091601775E0,-1.131042242E-1,-6.295267105E0,-2.344703674E-1
6.096425682E0,-1.283992529E-1,-6.392363071E0,-2.788906097E-1
6.101249640E0,-1.134887934E-1,-6.399719715E0,-3.018732071E-1
6.106073546E0,-1.686936617E-1,-6.282495499E0,-3.416271210E-1
6.110897452E0,-2.058562040E-1,-6.148538113E0,-3.102550507E-1
6.115721411E0,-2.017465830E-1,-6.017067432E0,-2.914533615E-1
6.120545317E0,-2.134619951E-1,-5.911938667E0,-2.684879303E-1
6.125369223E0,-1.980696917E-1,-5.847020626E0,-2.651166916E-1
6.130193182E0,-1.818739176E-1,-5.824408054E0,-2.882909775E-1
6.135017088E0,-9.846270084E-2,-5.789159775E0,-2.832098007E-1
6.139840994E0,-7.424950600E-3,-5.738917351E0,-2.927780151E-1
6.144664900E0,3.958690166E-2,-5.695125580E0,-2.978096008E-1
6.149488859E0,-2.430891991E-2,-5.437506676E0,-2.388572693E-1
6.154312817E0,-4.758274555E-2,-5.219683647E0,-1.898975372E-1
6.159136723E0,7.367777824E-2,-5.460932255E0,-3.003349304E-1
6.163960629E0,1.798657179E-1,-5.670505047E0,-4.074239731E-1
6.168784536E0,1.492487788E-1,-5.519117355E0,-4.351310730E-1
6.173608494E0,1.098696589E-1,-5.264154911E0,-3.436927795E-1
6.178432400E0,1.853705049E-1,-5.288403034E0,-3.405313492E-1
6.183256359E0,2.608258128E-1,-5.679212570E0,-4.984722137E-1
6.188080265E0,3.104536533E-1,-5.721746445E0,-5.243034363E-1
6.192904171E0,3.561179042E-1,-5.661090374E0,-4.784364700E-1
6.197728129E0,4.031248093E-1,-5.588486195E0,-4.468545914E-1
6.202552036E0,3.811082244E-1,-5.497189045E0,-4.127597809E-1
6.207375942E0,4.165247381E-1,-5.499011517E0,-3.975114822E-1
6.212199900E0,4.278487563E-1,-5.583616734E0,-3.867330551E-1
6.217023807E0,4.338712990E-1,-5.750258446E0,-3.875198364E-1
6.221847765E0,4.460346699E-1,-5.945841789E0,-4.069108963E-1
6.226671671E0,4.820907712E-1,-6.115431786E0,-4.139900208E-1
6.231495577E0,4.653583765E-1,-5.998733521E0,-2.689266205E-1
6.236319536E0,4.688550234E-1,-5.802623749E0,-1.154613495E-1
6.241143442E0,5.291291475E-1,-5.871975422E0,-5.582237244E-2
6.245967348E0,6.209979653E-1,-5.948393345E0,-1.341724396E-2
6.250791307E0,5.095133185E-1,-5.802023411E0,6.172370911E-2
6.255615161E0,3.604535460E-1,-5.684076309E0,1.242694855E-1
6.260439119E0,3.188079596E-1,-5.706055641E0,1.221065521E-1
6.265263077E0,3.074098229E-1,-5.698367119E0,1.197910309E-1
6.270086984E0,2.876157761E-1,-5.692273617E0,1.457347870E-1
6.274910890E0,2.970426083E-1,-5.721008778E0,1.640491486E-1
6.279734848E0,2.663968205E-1,-5.682360649E0,2.079668045E-1
6.284558754E0,2.502868176E-1,-5.681313992E0,2.274045944E-1
6.289382713E0,2.578558922E-1,-5.622886658E0,2.367467880E-1
6.294206619E0,2.485365868E-1,-5.588312626E0,2.645444870E-1
6.299030525E0,2.226210833E-1,-5.544116497E0,2.893085480E-1
6.303854484E0,2.110984325E-1,-5.542743683E0,2.778406143E-1
6.308678390E0,2.234418392E-1,-5.512544155E0,2.684354782E-1
6.313502296E0,2.477986813E-1,-5.477643967E0,2.658491135E-1
6.318326254E0,1.941549778E-1,-5.478309155E0,2.629642487E-1
6.323150161E0,2.129058838E-1,-5.459702015E0,2.598285675E-1
6.327974067E0,2.539460659E-1,-5.419563293E0,2.541370392E-1
6.332798025E0,2.699608803E-1,-5.436319828E0,2.317380905E-1
6.337621932E0,2.851731777E-1,-5.461947918E0,1.999549866E-1
6.342445838E0,2.553684711E-1,-5.441588879E0,1.400222778E-1
6.347269796E0,1.632246971E-1,-5.453829765E0,4.999542236E-2
6.352093702E0,2.955305576E-2,-5.398643017E0,-1.036357880E-2
6.356917661E0,2.215660810E-1,-5.359488964E0,-4.376602173E-2
6.361741567E0,3.585536480E-1,-5.454523563E0,-3.388500214E-2
6.366565473E0,3.938348293E-1,-5.549483776E0,-9.966850281E-2
6.371389432E0,2.958691120E-1,-5.598893166E0,-2.118806839E-1
6.376213338E0,1.899225712E-1,-5.638586998E0,-2.940902710E-1
6.381037244E0,2.461636066E-1,-5.599600792E0,-3.086614609E-1
6.385861202E0,3.506321907E-1,-5.645791054E0,-3.203477859E-1
6.390685109E0,2.679489851E-1,-5.785577297E0,-4.644317627E-1
6.395509067E0,1.374031305E-1,-5.884874344E0,-5.760717392E-1
6.400332973E0,1.651558876E-1,-5.922393799E0,-6.200447083E-1
6.405156879E0,2.491269112E-1,-5.884288788E0,-6.018342972E-1
6.409980838E0,3.402341604E-1,-5.823455334E0,-5.506210327E-1
6.414804744E0,3.806860447E-1,-5.818292141E0,-5.071525574E-1
6.419628650E0,4.249554873E-1,-5.782884598E0,-4.833335876E-1
6.424452609E0,3.921440840E-1,-5.734172821E0,-4.505796432E-1
6.429276515E0,4.038325548E-1,-5.736230373E0,-4.469566345E-1
6.434100369E0,4.166476727E-1,-5.731782913E0,-4.461812973E-1
6.438924379E0,4.519592524E-1,-5.647403240E0,-4.055328369E-1
6.443748286E0,4.575389624E-1,-5.633187771E0,-3.846406937E-1
6.448572192E0,4.385970831E-1,-5.629317284E0,-3.785638809E-1
6.453396150E0,4.715195298E-1,-5.566990376E0,-3.491811752E-1
6.458220057E0,5.065814257E-1,-5.517936230E0,-3.203344345E-1
6.463044015E0,5.822093487E-1,-5.453874111E0,-2.682170868E-1
6.467867921E0,6.531536579E-1,-5.436631203E0,-2.333297729E-1
6.472691827E0,7.411994934E-1,-5.461260319E0,-1.893711090E-1
6.477515786E0,7.971172333E-1,-5.423303604E0,-1.173334122E-1
6.482339692E0,7.702311277E-1,-5.439645290E0,-1.549072266E-1
6.487163598E0,7.216883898E-1,-5.438779831E0,-1.634178162E-1
6.491987557E0,7.114995718E-1,-5.335776806E0,-1.217050552E-1
6.496811463E0,7.207888365E-1,-5.357003689E0,-9.658432007E-2
6.501635369E0,6.242265701E-1,-5.624518871E0,-1.922616959E-1
6.506459327E0,6.411827803E-1,-5.780198097E0,-2.558641434E-1
6.511283234E0,6.377661824E-1,-5.782298088E0,-2.378520966E-1
6.516107192E0,6.565854549E-1,-5.810231209E0,-1.982679367E-1
6.520931098E0,7.039846182E-1,-5.837723732E0,-1.539773941E-1
6.525755004E0,7.577788830E-1,-5.890941620E0,-1.074657440E-1
6.530578911E0,7.579524517E-1,-5.979131222E0,-8.018398285E-2
6.535402869E0,6.975839138E-1,-6.047542095E0,-6.963539124E-2
6.540226775E0,6.547520161E-1,-5.980264664E0,7.277488708E-3
6.545050734E0,6.497312784E-1,-5.989777088E0,7.395362854E-2
6.549874640E0,6.506826878E-1,-6.077840805E0,8.530807495E-2
6.554698546E0,5.600521564E-1,-6.087330818E0,1.248207092E-1
6.559522504E0,4.875252247E-1,-5.952763081E0,1.969623566E-1
6.564346411E0,4.777113795E-1,-5.908062458E0,2.444763184E-1
6.569170317E0,3.829637766E-1,-5.878984928E0,2.509593964E-1
6.573994275E0,3.368371129E-1,-5.848905087E0,2.618350983E-1
6.578818182E0,3.553816080E-1,-5.839287281E0,2.746810913E-1
6.583642140E0,3.051410913E-1,-5.788267612E0,2.799921036E-1
6.588466046E0,2.746671438E-1,-5.760394573E0,2.778625488E-1
6.593289952E0,2.736722827E-1,-5.696157932E0,2.802753448E-1
6.598113911E0,2.497617602E-1,-5.631501675E0,2.990808487E-1
6.602937817E0,2.014214993E-1,-5.587718487E0,2.630538940E-1
6.607761723E0,1.958568096E-1,-5.552699089E0,1.988315582E-1
6.612585682E0,1.740450263E-1,-5.545287609E0,1.470766068E-1
6.617409588E0,1.554608345E-1,-5.517636299E0,1.006164551E-1
6.622233494E0,1.949790716E-1,-5.557557106E0,4.522132874E-2
6.627057452E0,2.685415745E-1,-5.616698742E0,-9.522438049E-3
6.631881359E0,2.977080941E-1,-5.628443241E0,-3.275299072E-2
6.636705265E0,2.735158205E-1,-5.668807983E0,-8.877944946E-2
6.641529223E0,2.770687342E-1,-5.756417751E0,-1.322450638E-1
6.646353129E0,2.183785439E-1,-5.779159546E0,-1.655893326E-1
6.651177088E0,2.449549437E-1,-5.784757614E0,-2.173814774E-1
6.656000994E0,1.808094978E-1,-5.792151451E0,-2.803173065E-1
6.660824900E0,9.120774269E-2,-5.841383457E0,-3.684940338E-1
6.665648859E0,1.345295310E-1,-5.865576744E0,-3.821344376E-1
6.670472765E0,1.904036999E-1,-5.857707500E0,-3.812522888E-1
6.675296671E0,1.871238947E-1,-5.891242981E0,-4.395761490E-1
6.680120629E0,1.576401591E-1,-5.960842133E0,-4.855184555E-1
6.684944536E0,1.749905944E-1,-5.907155991E0,-4.575815201E-1
6.689768442E0,1.883434653E-1,-5.821380615E0,-4.418811798E-1
6.694592400E0,1.998026371E-1,-5.810540676E0,-4.739522934E-1
6.699416307E0,2.115164399E-1,-5.805013180E0,-4.798688889E-1
6.704240265E0,2.164796591E-1,-5.755008698E0,-4.693355560E-1
6.709064171E0,2.384241819E-1,-5.689450741E0,-4.638595581E-1
6.713888077E0,2.371276617E-1,-5.637064934E0,-4.230289459E-1
6.718712036E0,2.414258718E-1,-5.593124866E0,-4.111928940E-1
6.723535942E0,3.130770922E-1,-5.505342484E0,-3.830070496E-1
6.728359848E0,3.475484848E-1,-5.450368404E0,-3.172101974E-1
6.733183807E0,4.144271612E-1,-5.430368900E0,-2.852478027E-1
6.738007713E0,4.216080308E-1,-5.433364868E0,-2.748985291E-1
6.742831619E0,3.752733469E-1,-5.473416805E0,-3.048706055E-1
6.747655577E0,4.587198496E-1,-5.446064472E0,-2.609243393E-1
6.752479484E0,4.909491539E-1,-5.435074806E0,-2.385511398E-1
6.757303390E0,4.724627137E-1,-5.449753284E0,-2.280769348E-1
6.762127348E0,4.326790571E-1,-5.501880646E0,-2.317266464E-1
6.766951254E0,4.288485050E-1,-5.572044373E0,-2.612352371E-1
6.771775213E0,4.628959894E-1,-5.645833015E0,-2.642002106E-1
6.776599119E0,4.749431610E-1,-5.713745117E0,-2.788333893E-1
6.781423025E0,4.982129335E-1,-5.775864601E0,-2.433662415E-1
6.786246984E0,4.685252309E-1,-5.732914448E0,-2.009344101E-1
6.791070890E0,4.125202894E-1,-5.640520096E0,-1.468420029E-1
6.795894796E0,4.535089731E-1,-5.639297009E0,-9.782695770E-2
6.800718754E0,4.738754034E-1,-5.626523495E0,-6.339168549E-2
6.805542661E0,5.112103224E-1,-5.723387241E0,-4.110431671E-2
6.810366567E0,5.174742937E-1,-5.810432434E0,-9.557723999E-3
6.815190525E0,5.325424671E-1,-5.755092144E0,6.429767609E-2
6.820014379E0,4.447571635E-1,-5.653813362E0,1.516122818E-1
6.824838338E0,4.276654720E-1,-5.644854546E0,1.786460876E-1
6.829662296E0,3.784377575E-1,-5.696456909E0,1.791009903E-1
6.834486202E0,3.234924078E-1,-5.751263618E0,1.698064804E-1
6.839310161E0,3.079230785E-1,-5.764266491E0,1.603212357E-1
6.844134067E0,2.697927952E-1,-5.712119102E0,1.862487793E-1
6.848957973E0,2.521955967E-1,-5.567153454E0,2.378129959E-1
6.853781932E0,2.715525627E-1,-5.515398502E0,2.673416138E-1
6.858605838E0,2.517488003E-1,-5.506245613E0,2.679214478E-1
6.863429744E0,2.574089766E-1,-5.472956181E0,2.493133545E-1
6.868253702E0,2.599406242E-1,-5.458541393E0,2.401704788E-1
6.873077609E0,2.455384135E-1,-5.424781799E0,2.475938797E-1
6.877901515E0,2.359717488E-1,-5.386125088E0,2.287759781E-1
6.882725473E0,2.173231840E-1,-5.347428322E0,2.219543457E-1
6.887549379E0,1.854284406E-1,-5.296744823E0,2.152423859E-1
6.892373338E0,1.174381971E-1,-5.286212444E0,1.494321823E-1
6.897197244E0,7.805466652E-2,-5.317635536E0,5.593109131E-2
6.902021150E0,2.479803562E-2,-5.364285469E0,-2.460765839E-2
6.906845109E0,1.067258120E-1,-5.404439926E0,-9.708023071E-2
6.911669015E0,1.446586847E-1,-5.482891560E0,-1.378059387E-1
6.916492921E0,1.483156681E-1,-5.485103607E0,-1.873846054E-1
6.921316879E0,2.004708052E-1,-5.520758152E0,-2.078332901E-1
6.926140786E0,2.313059568E-1,-5.665056705E0,-2.872419357E-1
6.930964692E0,2.335120440E-1,-5.710381031E0,-3.610973358E-1
6.935788650E0,2.378717661E-1,-5.657447338E0,-3.535537720E-1
6.940612557E0,2.228471041E-1,-5.599487305E0,-3.554811478E-1
6.945436515E0,1.437038183E-1,-5.586251259E0,-3.786401749E-1
6.950260421E0,-7.846355438E-3,-5.624439240E0,-4.370098114E-1
6.955084327E0,1.282579899E-1,-5.549886703E0,-4.118175507E-1
6.959908286E0,2.872807980E-1,-5.519964218E0,-3.775014877E-1
6.964732192E0,2.791554928E-1,-5.498667240E0,-3.768663406E-1
6.969556098E0,3.019490242E-1,-5.471678734E0,-3.622303009E-1
6.974380057E0,3.173899651E-1,-5.443806171E0,-3.550796509E-1
6.979203963E0,3.160642385E-1,-5.443455219E0,-3.506155014E-1
6.984027869E0,3.264974356E-1,-5.465568542E0,-3.654451370E-1
6.988851827E0,3.488018513E-1,-5.443700314E0,-3.495588303E-1
6.993675734E0,3.426390886E-1,-5.444599152E0,-3.293046951E-1
6.998499692E0,3.560191989E-1,-5.441946030E0,-3.379011154E-1
7.003323598E0,3.866597414E-1,-5.442969799E0,-3.252449036E-1
7.008147504E0,3.776649237E-1,-5.445322514E0,-3.152179718E-1
7.012971463E0,3.795582056E-1,-5.446724892E0,-3.219928741E-1
7.017795317E0,4.350311756E-1,-5.364235401E0,-2.481355667E-1
7.022619275E0,4.965277910E-1,-5.267565727E0,-1.915588379E-1
7.027443234E0,5.359723568E-1,-5.142905712E0,-1.496963501E-1
7.032267140E0,5.305380821E-1,-5.099682808E0,-1.389408112E-1
7.037091046E0,5.716055632E-1,-5.194312096E0,-1.802902222E-1
7.041915004E0,6.000329256E-1,-5.254619122E0,-1.783323288E-1
7.046738911E0,6.305476427E-1,-5.295277119E0,-1.879701614E-1
7.051562817E0,6.492083669E-1,-5.344940662E0,-1.948385239E-1
7.056386775E0,6.707248092E-1,-5.358550072E0,-1.704530716E-1
7.061210629E0,6.240061522E-1,-5.433631897E0,-1.720104218E-1
7.066034640E0,6.140907407E-1,-5.538975239E0,-1.945476532E-1
7.070858546E0,5.550822616E-1,-5.614946365E0,-1.643447876E-1
7.075682452E0,5.513035059E-1,-5.654676437E0,-1.483430862E-1
7.080506411E0,5.871145725E-1,-5.672749996E0,-1.085662842E-1
7.085330317E0,6.231784821E-1,-5.700224876E0,-7.855606079E-2
7.090154223E0,5.429410934E-1,-5.739311218E0,-6.538295746E-2
7.094978182E0,4.398127794E-1,-5.707023621E0,-5.231189728E-2
7.099802088E0,4.369725585E-1,-5.680066586E0,-1.804065704E-2
7.104625994E0,4.711079597E-1,-5.627755642E0,4.189872742E-2
7.109449952E0,4.889073372E-1,-5.635729313E0,8.447551727E-2
7.114273859E0,5.205481052E-1,-5.698768139E0,1.215896606E-1
7.119097765E0,5.369215608E-1,-5.733325005E0,1.460981369E-1
7.123921723E0,4.080331326E-1,-5.618964672E0,1.961078644E-1
7.128745629E0,3.321253061E-1,-5.489991665E0,2.239599228E-1
7.133569588E0,3.183531761E-1,-5.451032639E0,2.369794846E-1
7.138393494E0,3.092646599E-1,-5.404044151E0,2.424230576E-1
7.143217400E0,3.073820472E-1,-5.413229942E0,2.261505127E-1
7.148041359E0,2.823258042E-1,-5.361753464E0,2.168989182E-1
7.152865265E0,2.443490028E-1,-5.309534073E0,1.980819702E-1
7.157689171E0,2.606490850E-1,-5.308709621E0,1.580114365E-1
7.162513129E0,2.105519772E-1,-5.204673767E0,1.539192200E-1
7.167337036E0,1.687760353E-1,-5.154847145E0,1.357622147E-1
7.172160942E0,2.348775864E-1,-5.267634392E0,3.959941864E-2
7.176984900E0,2.987579703E-1,-5.327885628E0,-3.410339355E-3
7.181808807E0,2.918854952E-1,-5.343092442E0,-2.215290070E-2
7.186632765E0,2.887448072E-1,-5.372807026E0,-5.237770081E-2
7.191456671E0,3.081411123E-1,-5.452331066E0,-1.129884720E-1
7.196280577E0,2.883280516E-1,-5.443527699E0,-1.159248352E-1
7.201104536E0,2.794895172E-1,-5.465634823E0,-1.518306732E-1
7.205928442E0,3.406634331E-1,-5.503995895E0,-1.801109314E-1
7.210752400E0,3.453875780E-1,-5.539271355E0,-2.103404999E-1
7.215576307E0,3.294969797E-1,-5.521475315E0,-2.187995911E-1
7.220400213E0,2.647696733E-1,-5.557696819E0,-2.649850845E-1
7.225224119E0,2.202740908E-1,-5.606927872E0,-3.319988251E-1
7.230048077E0,1.486259699E-1,-5.692382812E0,-4.267578125E-1
7.234871984E0,1.566343307E-1,-5.642964363E0,-4.256763458E-1
7.239695942E0,2.145047784E-1,-5.568765640E0,-4.340419769E-1
7.244519848E0,2.216490507E-1,-5.567162991E0,-4.447183609E-1
7.249343754E0,2.422518730E-1,-5.568742752E0,-4.624786377E-1
7.254167713E0,2.901074886E-1,-5.563793182E0,-4.659519196E-1
7.258991619E0,3.031996489E-1,-5.519098282E0,-4.505319595E-1
7.263815525E0,3.100960851E-1,-5.487353802E0,-4.567441940E-1
7.268639484E0,3.251775503E-1,-5.447113037E0,-4.274530411E-1
7.273463390E0,3.220990896E-1,-5.441334248E0,-3.914556503E-1
7.278287296E0,3.414457440E-1,-5.412683010E0,-3.938789368E-1
7.283111254E0,3.642200232E-1,-5.368694782E0,-3.418483734E-1
7.287935161E0,4.802861810E-1,-5.257416248E0,-2.643194199E-1
7.292759067E0,4.709165096E-1,-5.240964890E0,-2.611246109E-1
7.297583025E0,4.470475316E-1,-5.339798927E0,-2.698659897E-1
7.302406932E0,4.877095819E-1,-5.292297363E0,-2.144546509E-1
7.307230890E0,5.946906805E-1,-5.284902096E0,-1.808567047E-1
7.312054796E0,7.549830675E-1,-5.232155323E0,-1.143798828E-1
7.316878702E0,7.101883888E-1,-5.191446781E0,-4.607295990E-2
7.321702661E0,5.252684355E-1,-5.288546085E0,-1.063022614E-1
7.326526567E0,4.863866568E-1,-5.422589302E0,-1.468582153E-1
7.331350473E0,4.951833487E-1,-5.401206017E0,-1.441726685E-1
7.336174432E0,4.753808975E-1,-5.415596962E0,-1.413183212E-1
7.340998338E0,4.701048136E-1,-5.425236225E0,-1.169252396E-1
7.345822244E0,4.505820274E-1,-5.434995174E0,-9.254837036E-2
7.350646202E0,4.714157581E-1,-5.451988220E0,-1.132831573E-1
7.355470109E0,4.747372270E-1,-5.490449905E0,-7.914733887E-2
7.360294067E0,4.742618799E-1,-5.526552677E0,-4.049873352E-2
7.365117973E0,5.002247095E-1,-5.553245544E0,-6.935119629E-3
7.369941879E0,4.853794575E-1,-5.591965199E0,7.287979126E-3
7.374765838E0,4.534437656E-1,-5.633193970E0,2.127170563E-2
7.379589744E0,3.713585138E-1,-5.636694908E0,2.315330505E-2
7.384413650E0,3.201953173E-1,-5.645441532E0,3.201198578E-2
7.389237609E0,2.924069166E-1,-5.569439888E0,6.437397003E-2
7.394061515E0,2.762171626E-1,-5.480862141E0,1.129446030E-1
7.398885421E0,2.852739692E-1,-5.432070255E0,1.419448853E-1
7.403709379E0,2.814464569E-1,-5.425201893E0,1.491680145E-1
7.408533286E0,2.767968178E-1,-5.400519371E0,1.419277191E-1
7.413357244E0,2.736122608E-1,-5.374886990E0,1.488084793E-1
7.418181150E0,2.718173862E-1,-5.386330128E0,1.412143707E-1
7.423005057E0,2.858129740E-1,-5.332457542E0,1.406459808E-1
7.427829015E0,2.728555202E-1,-5.308720112E0,1.233329773E-1
7.432652921E0,2.690198421E-1,-5.307728767E0,8.945178986E-2
7.437476827E0,2.461651564E-1,-5.315010548E0,5.580520630E-2
7.442300786E0,2.593280077E-1,-5.301949501E0,6.039333344E-2
7.447124692E0,2.704538703E-1,-5.313724995E0,1.513767242E-2
7.451948598E0,2.914441228E-1,-5.288428307E0,-2.258872986E-2
7.456772557E0,3.176785111E-1,-5.254765987E0,-1.248073578E-2
7.461596463E0,3.137262464E-1,-5.234154224E0,-7.107734680E-3
7.466420421E0,2.848600745E-1,-5.164756298E0,-8.765220642E-3
7.471244327E0,2.882565856E-1,-5.156097889E0,-7.889747620E-3
7.476068234E0,2.738136053E-1,-5.269232273E0,-7.804679871E-2
7.480892192E0,2.893013954E-1,-5.369914055E0,-1.474275589E-1
7.485716098E0,2.137931585E-1,-5.372718334E0,-1.804027557E-1
7.490540004E0,2.590005398E-1,-5.361370087E0,-1.939001083E-1
7.495363963E0,3.023672104E-1,-5.357318401E0,-2.071189880E-1
7.500187869E0,2.515677810E-1,-5.367411137E0,-2.224025726E-1
7.505011775E0,2.636600137E-1,-5.431790352E0,-2.468824387E-1
7.509835734E0,2.687579393E-1,-5.431256294E0,-2.781753540E-1
7.514659640E0,2.976087332E-1,-5.418377876E0,-2.758970261E-1
7.519483598E0,2.666087151E-1,-5.421548843E0,-2.973175049E-1
7.524307504E0,2.213144898E-1,-5.490304947E0,-3.422412872E-1
7.529131411E0,1.739535332E-1,-5.481725693E0,-3.653726578E-1
7.533955369E0,2.260579467E-1,-5.446195602E0,-3.788185120E-1
7.538779275E0,2.577490807E-1,-5.383948326E0,-3.471250534E-1
7.543603129E0,2.642948627E-1,-5.352119923E0,-3.442535400E-1
7.548427140E0,2.480757833E-1,-5.352698326E0,-3.794822693E-1
7.553251046E0,2.423224449E-1,-5.378339767E0,-3.837146759E-1
7.558074952E0,3.128050566E-1,-5.312597752E0,-3.454294205E-1
7.562898911E0,2.882635593E-1,-5.298658848E0,-3.005514145E-1
7.567722817E0,2.906044722E-1,-5.324188709E0,-3.155698776E-1
7.572546775E0,3.761413693E-1,-5.284504890E0,-2.761459351E-1
7.577370682E0,3.759928942E-1,-5.251505852E0,-2.372779846E-1
7.582194588E0,3.648282886E-1,-5.241776943E0,-2.250156403E-1
7.587018494E0,3.669636250E-1,-5.186357975E0,-2.153444290E-1
7.591842452E0,4.132547975E-1,-5.130953789E0,-1.963720322E-1
7.596666359E0,4.560491443E-1,-5.087435722E0,-1.918811798E-1
7.601490317E0,4.911473989E-1,-5.041611195E0,-1.684675217E-1
7.606314223E0,5.096994042E-1,-5.053004265E0,-1.452064514E-1
7.611138129E0,5.381845236E-1,-4.997826576E0,-8.885288239E-2
7.615962088E0,5.415114164E-1,-5.007278919E0,-7.792091370E-2
7.620785994E0,4.754419923E-1,-5.137713909E0,-1.333150864E-1
7.625609900E0,5.023380518E-1,-5.278888702E0,-1.808757782E-1
7.630433859E0,5.712449551E-1,-5.335836411E0,-1.756343842E-1
7.635257765E0,5.704219341E-1,-5.309342384E0,-1.370029449E-1
7.640081671E0,5.170466304E-1,-5.323501587E0,-1.388177872E-1
7.644905629E0,4.709663391E-1,-5.351960659E0,-1.356487274E-1
7.649729536E0,4.932904243E-1,-5.359097004E0,-1.109895706E-1
7.654553494E0,4.671680927E-1,-5.368793488E0,-1.029806137E-1
7.659377400E0,4.164944887E-1,-5.390545845E0,-8.303165436E-2
7.664201307E0,4.172798395E-1,-5.395899773E0,-7.261562347E-2
7.669025265E0,4.259940982E-1,-5.363605022E0,-7.406711578E-2
7.673849171E0,4.467335939E-1,-5.367668152E0,-3.040695190E-2
7.678673077E0,4.552721977E-1,-5.384021759E0,5.737304688E-3
7.683497036E0,4.654093981E-1,-5.405594826E0,4.622268677E-2
7.688320942E0,4.955718517E-1,-5.415740490E0,7.195854187E-2
7.693144900E0,5.095132589E-1,-5.395648003E0,1.019840240E-1
7.697968754E0,4.599250555E-1,-5.364630222E0,1.457538605E-1
7.702792713E0,4.112124443E-1,-5.375010014E0,1.366920471E-1
7.707616671E0,4.150732756E-1,-5.376711369E0,1.439800262E-1
7.712440577E0,3.952406645E-1,-5.317671299E0,1.722459793E-1
7.717264484E0,3.329741955E-1,-5.269655704E0,2.023410797E-1
7.722088442E0,3.003267050E-1,-5.225502491E0,1.844930649E-1
7.726912348E0,2.381854057E-1,-5.190050602E0,1.547584534E-1
7.731736254E0,1.948558092E-1,-5.151321411E0,1.512918472E-1
7.736560213E0,1.729182005E-1,-5.088054657E0,1.596899033E-1
7.741384119E0,2.175226212E-1,-5.047770977E0,1.300725937E-1
7.746208077E0,2.216522694E-1,-5.063399315E0,1.031465530E-1
7.751031984E0,2.545095086E-1,-5.037048340E0,6.466865540E-2
7.755855890E0,3.369063139E-1,-5.146731377E0,-1.895904541E-3
7.760679848E0,3.050770760E-1,-5.184602737E0,-7.015800476E-2
7.765503754E0,2.079594135E-1,-5.200975895E0,-1.044483185E-1
7.770327661E0,1.393699646E-1,-5.217241287E0,-1.547832489E-1
7.775151567E0,4.488110542E-2,-5.192965031E0,-2.186117172E-1
7.779975525E0,1.539750099E-1,-5.258820057E0,-2.437238693E-1
7.784799432E0,3.167428970E-1,-5.328221798E0,-2.614192963E-1
7.789623390E0,3.307824135E-1,-5.329834938E0,-2.765474319E-1
7.794447296E0,2.781078219E-1,-5.309179306E0,-3.009862900E-1
7.799271254E0,2.729749084E-1,-5.335179329E0,-3.251934052E-1
7.804095161E0,2.557799220E-1,-5.362160683E0,-3.562850952E-1
7.808919067E0,2.926349640E-1,-5.352085114E0,-3.729038239E-1
7.813743025E0,2.905402184E-1,-5.302927971E0,-3.728113174E-1
7.818566932E0,3.208986521E-1,-5.279063702E0,-3.656520844E-1
7.823390838E0,2.932303548E-1,-5.268270016E0,-3.657341003E-1
7.828214796E0,3.099644780E-1,-5.244436741E0,-3.445396423E-1
7.833038702E0,3.397855163E-1,-5.236114502E0,-3.426017761E-1
7.837862609E0,3.377006650E-1,-5.224240780E0,-3.455028534E-1
7.842686567E0,3.725784421E-1,-5.218285084E0,-3.366203308E-1
7.847510473E0,3.921072483E-1,-5.178017139E0,-3.065414429E-1
7.852334432E0,3.963633180E-1,-5.160620689E0,-2.791795731E-1
7.857158338E0,4.095385075E-1,-5.125651360E0,-2.734556198E-1
7.861982244E0,4.078933001E-1,-5.113719940E0,-2.702026367E-1
7.866806202E0,4.132606983E-1,-5.093971252E0,-2.313966751E-1
7.871630109E0,4.684350491E-1,-5.057117939E0,-1.976613998E-1
7.876454015E0,5.208383799E-1,-5.020102978E0,-1.452217102E-1
7.881277973E0,5.800777674E-1,-5.125312805E0,-1.335477829E-1
7.886101879E0,6.059923768E-1,-5.176921844E0,-1.432924271E-1
7.890925786E0,6.131654978E-1,-5.182614803E0,-1.220731735E-1
7.895749744E0,6.137501597E-1,-5.154803753E0,-8.912277222E-2
7.900573650E0,5.537152290E-1,-5.195893288E0,-9.431934357E-2
7.905397609E0,4.910598397E-1,-5.191444397E0,-9.695434570E-2
7.910221515E0,4.663496017E-1,-5.217870712E0,-1.065244675E-1
7.915045421E0,4.388805032E-1,-5.220370770E0,-1.016244888E-1
7.919869327E0,4.371485710E-1,-5.260771751E0,-1.132240295E-1
7.924693286E0,4.086674452E-1,-5.277218342E0,-1.056032181E-1
7.929517192E0,4.200428724E-1,-5.295912266E0,-1.050281525E-1
7.934341150E0,3.971563578E-1,-5.307411194E0,-9.485340118E-2
7.939165057E0,4.017831087E-1,-5.264408588E0,-8.230113983E-2
7.943988963E0,3.742049932E-1,-5.229053974E0,-5.316543579E-2
7.948812921E0,3.691266775E-1,-5.222715855E0,-4.556560516E-2
7.953636827E0,3.647305965E-1,-5.242697239E0,-6.646156311E-2
7.958460734E0,3.465127945E-1,-5.220055103E0,-6.581878662E-2
7.963284692E0,3.333184719E-1,-5.219286442E0,-3.197860718E-2
7.968108598E0,3.507856131E-1,-5.228346825E0,-2.932929993E-2
7.972932504E0,3.320302963E-1,-5.213900089E0,-1.017093658E-2
7.977756463E0,3.410574794E-1,-5.249807358E0,1.344776154E-2
7.982580369E0,3.534921408E-1,-5.262055397E0,3.476142883E-3
7.987404327E0,3.501105309E-1,-5.241412163E0,3.135395050E-2
7.992228234E0,3.379556537E-1,-5.245253563E0,6.351661682E-2
7.997052140E0,3.171064258E-1,-5.249520779E0,3.823947906E-2
8.001876098E0,3.256657124E-1,-5.223465443E0,5.329132080E-2
8.006700004E0,3.042631745E-1,-5.172227383E0,6.564712524E-2
8.011523911E0,2.842633128E-1,-5.115008354E0,6.824111938E-2
8.016347869E0,2.729796171E-1,-5.073263168E0,7.304668427E-2
8.021171775E0,2.612633705E-1,-5.044582367E0,5.399322510E-2
8.025995734E0,3.037601709E-1,-5.052474976E0,3.264999390E-2
8.030819640E0,2.957291603E-1,-5.070443153E0,1.142978668E-2
8.035643546E0,3.090780973E-1,-5.100713253E0,-1.912307739E-2
8.040467504E0,3.460470438E-1,-5.126482964E0,-3.993701935E-2
8.045291411E0,3.545454741E-1,-5.154841900E0,-5.580329895E-2
8.050115317E0,3.656516075E-1,-5.157251358E0,-4.065799713E-2
8.054939275E0,3.320442438E-1,-5.157668591E0,-7.779598236E-2
8.059763182E0,3.419020176E-1,-5.160883904E0,-8.610057831E-2
8.064587088E0,3.310418129E-1,-5.140710354E0,-8.239173889E-2
8.069411046E0,3.636521101E-1,-5.135164738E0,-9.287071228E-2
8.074234952E0,3.495424390E-1,-5.198764801E0,-1.339941025E-1
8.079058911E0,3.459732533E-1,-5.150429249E0,-1.343240738E-1
8.083882817E0,3.318299055E-1,-5.135891438E0,-1.558618546E-1
8.088706723E0,3.452411294E-1,-5.140516281E0,-1.699438095E-1
8.093530682E0,3.103069663E-1,-5.100078106E0,-1.623620987E-1
8.098354588E0,2.705000639E-1,-5.045981407E0,-1.688575745E-1
8.103178494E0,2.636803389E-1,-5.046952248E0,-1.869421005E-1
8.108002452E0,2.518174648E-1,-5.107118130E0,-2.354688644E-1
8.112826359E0,2.984683514E-1,-5.156987667E0,-2.525405884E-1
8.117650265E0,3.101685047E-1,-5.220256329E0,-2.716836929E-1
8.122474223E0,3.556915522E-1,-5.223150730E0,-2.644405365E-1
8.127298129E0,3.324563503E-1,-5.220732212E0,-2.619075775E-1
8.132122036E0,3.448008299E-1,-5.269773960E0,-2.807235718E-1
8.136945994E0,3.233180046E-1,-5.319990635E0,-2.946472168E-1
8.141769900E0,3.201415539E-1,-5.288271904E0,-2.966518402E-1
8.146593859E0,3.087844253E-1,-5.274957657E0,-3.082208633E-1
8.151417765E0,2.987215519E-1,-5.263258934E0,-3.008155823E-1
8.156241671E0,3.348294497E-1,-5.201027393E0,-2.770023346E-1
8.161065629E0,2.980041504E-1,-5.186013222E0,-2.677764893E-1
8.165889536E0,3.026038408E-1,-5.165644646E0,-2.374477386E-1
8.170713494E0,3.292949200E-1,-5.137821674E0,-2.123060226E-1
8.175537400E0,3.491373062E-1,-5.085986137E0,-1.757335663E-1
8.180361307E0,4.237159491E-1,-5.048433304E0,-1.397132874E-1
8.185185265E0,4.527662992E-1,-5.046438217E0,-1.113815308E-1
8.190009171E0,4.133278728E-1,-5.046617031E0,-1.143560410E-1
8.194833077E0,3.965541720E-1,-5.037116051E0,-1.198530197E-1
8.199657036E0,4.001798630E-1,-5.044137001E0,-9.934139252E-2
8.204480942E0,3.817945719E-1,-5.029678822E0,-1.075582504E-1
8.209304848E0,3.753143549E-1,-4.894474030E0,-7.302761078E-2
8.214128807E0,3.979415298E-1,-4.767969608E0,-3.874111176E-2
8.218952713E0,4.118649960E-1,-4.820940495E0,-5.447864532E-2
8.223776619E0,4.579341412E-1,-4.952015400E0,-9.129428864E-2
8.228600577E0,4.864400029E-1,-4.949356556E0,-1.204986572E-1
8.233424484E0,4.931445718E-1,-4.925761223E0,-1.041555405E-1
8.238248442E0,4.831250906E-1,-4.928851128E0,-1.114387512E-1
8.243072348E0,4.497362375E-1,-5.005676270E0,-1.373624802E-1
8.247896254E0,4.525745511E-1,-5.084487915E0,-1.651506424E-1
8.252720213E0,4.578151703E-1,-5.098824024E0,-1.497325897E-1
8.257544119E0,4.484440684E-1,-5.153638840E0,-1.271018982E-1
8.262368077E0,4.384527206E-1,-5.179597855E0,-1.400585175E-1
8.267191984E0,4.558640718E-1,-5.269498348E0,-1.575069427E-1
8.272015890E0,4.309175014E-1,-5.415437222E0,-1.960945129E-1
8.276839796E0,4.556980729E-1,-5.481672764E0,-1.703205109E-1
8.281663754E0,4.582559466E-1,-5.284102917E0,-6.416893005E-2
8.286487661E0,4.407142401E-1,-5.174070358E0,3.383064270E-2
8.291311619E0,4.195569754E-1,-5.148516178E0,3.354263306E-2
8.296135525E0,3.992667198E-1,-5.149906158E0,5.913352966E-2
8.300959432E0,4.008439779E-1,-5.163726330E0,8.661460876E-2
8.305783390E0,3.859424591E-1,-5.166248322E0,8.271789551E-2
8.310607296E0,3.429499865E-1,-5.129180908E0,9.042835236E-2
8.315431202E0,3.361471891E-1,-5.093198776E0,1.025304794E-1
8.320255161E0,2.941148281E-1,-5.029819489E0,1.023912430E-1
8.325079067E0,2.768732309E-1,-5.015345573E0,1.210107803E-1
8.329902973E0,2.821691036E-1,-4.964025021E0,1.250581741E-1
8.334726932E0,2.721010447E-1,-4.928331852E0,1.004610062E-1
8.339550838E0,2.496716976E-1,-4.889167309E0,9.023857117E-2
8.344374744E0,2.535032034E-1,-4.874969006E0,5.638408661E-2
8.349198702E0,2.695880532E-1,-4.866488457E0,5.136108398E-2
8.354022609E0,3.100002408E-1,-4.880130291E0,6.165504456E-3
8.358846567E0,2.872149348E-1,-4.929776192E0,-6.931018829E-2
8.363670473E0,2.214387059E-1,-4.953390121E0,-1.059160233E-1
8.368494432E0,1.847008467E-1,-4.941709518E0,-1.110315323E-1
8.373318338E0,2.405991554E-1,-4.930434227E0,-1.300230026E-1
8.378142244E0,3.354184031E-1,-4.981149197E0,-1.367521286E-1
8.382966202E0,3.662613034E-1,-5.062175751E0,-1.717214584E-1
8.387790109E0,3.547953367E-1,-5.116197586E0,-1.801452637E-1
8.392614015E0,3.509450555E-1,-5.178784847E0,-2.287149429E-1
8.397437973E0,3.187501431E-1,-5.207143307E0,-2.388334274E-1
8.402261879E0,2.983297110E-1,-5.277239323E0,-2.607078552E-1
8.407085786E0,3.033890724E-1,-5.324453354E0,-2.990436554E-1
8.411909744E0,3.000352383E-1,-5.375010014E0,-3.134346008E-1
8.416733650E0,3.305917978E-1,-5.331528664E0,-3.136348724E-1
8.421557557E0,3.138679266E-1,-5.239960194E0,-2.784442902E-1
8.426381515E0,2.906333208E-1,-5.117473602E0,-2.271423340E-1
8.431205421E0,2.916923761E-1,-5.085377216E0,-2.310600281E-1
8.436029379E0,2.979987860E-1,-5.031424046E0,-2.090454102E-1
8.440853286E0,3.049799204E-1,-4.989120007E0,-1.945085526E-1
8.445677192E0,3.224226236E-1,-4.922813892E0,-1.897201538E-1
8.450501150E0,3.338612318E-1,-4.821044922E0,-1.352510452E-1
8.455325057E0,2.973927259E-1,-4.679676533E0,-8.600139618E-2
8.460148963E0,3.370189071E-1,-4.653283596E0,-1.059617996E-1
8.464972921E0,4.093612432E-1,-4.740829945E0,-1.186285019E-1
8.469796827E0,4.668786526E-1,-4.867497921E0,-1.335258484E-1
8.474620786E0,4.674602151E-1,-4.928594112E0,-1.671991348E-1
8.479444692E0,4.641444683E-1,-4.886720657E0,-1.696262360E-1
8.484268598E0,4.122618437E-1,-4.956198215E0,-1.884822845E-1
8.489092557E0,4.284778833E-1,-5.012718678E0,-2.355041504E-1
8.493916463E0,4.504891634E-1,-5.018398285E0,-2.108068466E-1
8.498740369E0,4.497951865E-1,-5.002160549E0,-1.932954788E-1
8.503564275E0,4.431246519E-1,-4.995064259E0,-1.829195023E-1
8.508388234E0,4.116205573E-1,-5.004211426E0,-1.843624115E-1
8.513212140E0,4.215753078E-1,-5.034182549E0,-1.809549332E-1
8.518036098E0,3.968548775E-1,-5.032718658E0,-1.608638763E-1
8.522860004E0,3.826463223E-1,-5.054567337E0,-1.693315506E-1
8.527683911E0,4.023569822E-1,-5.120872974E0,-1.776723862E-1
8.532507869E0,4.172586203E-1,-5.119773388E0,-1.574716568E-1
8.537331775E0,4.269140959E-1,-5.163334370E0,-1.588516235E-1
8.542155734E0,4.029308558E-1,-5.184677601E0,-1.579008102E-1
8.546979640E0,4.117097855E-1,-5.174568653E0,-1.451835632E-1
8.551803546E0,4.171664119E-1,-5.178436279E0,-1.208276749E-1
8.556627504E0,3.625658154E-1,-5.046865940E0,-6.118392944E-2
8.561451411E0,3.645763993E-1,-4.982749939E0,-3.536796570E-2
8.566275317E0,3.467148542E-1,-5.030660629E0,-5.022525787E-2
8.571099275E0,3.519651890E-1,-5.063907146E0,-5.557727814E-2
8.575923182E0,3.421808481E-1,-4.990181923E0,-4.438495636E-2
8.580747140E0,3.368144035E-1,-4.986002922E0,-3.810119629E-2
8.585571046E0,3.382502794E-1,-4.951227188E0,-2.244472504E-2
8.590394900E0,3.775721192E-1,-4.871939182E0,4.911422729E-3
8.595218911E0,3.785226345E-1,-4.916985512E0,-2.494144440E-2
8.600042817E0,3.843101263E-1,-4.916969299E0,1.239776611E-5
8.604866723E0,3.784354925E-1,-4.848556995E0,3.662300110E-2
8.609690682E0,4.015229344E-1,-4.821736813E0,3.023338318E-2
8.614514588E0,4.154686928E-1,-4.767357826E0,5.002498627E-2
8.619338546E0,4.368509054E-1,-4.808903694E0,3.645706177E-2
8.624162452E0,4.516831040E-1,-4.855459213E0,1.119232178E-2
8.628986359E0,4.480880499E-1,-4.885533333E0,1.940917969E-2
8.633810317E0,4.359346628E-1,-4.944207668E0,-2.219295502E-2
8.638634223E0,3.801161647E-1,-4.960029125E0,-4.671669006E-2
8.643458129E0,4.135191441E-1,-4.968961239E0,-2.586746216E-2
8.648282088E0,3.646273613E-1,-4.999441624E0,-6.441783905E-2
8.653105994E0,3.314169049E-1,-5.003909111E0,-7.407569885E-2
8.657929900E0,2.971069217E-1,-5.051121712E0,-1.072816849E-1
8.662753859E0,2.807913423E-1,-5.069532871E0,-1.211147308E-1
8.667577765E0,2.537646294E-1,-5.083055019E0,-1.560802460E-1
8.672401723E0,2.207800150E-1,-5.070366859E0,-1.692962646E-1
8.677225629E0,2.030065656E-1,-5.112262726E0,-1.680860519E-1
8.682049536E0,1.858691573E-1,-5.092060566E0,-1.573362350E-1
8.686873494E0,2.233196497E-1,-5.022079945E0,-1.609163284E-1
8.691697400E0,2.737319469E-1,-4.995305061E0,-1.242256165E-1
8.696521307E0,2.965120077E-1,-4.966267586E0,-1.116828918E-1
8.701345265E0,3.153507710E-1,-4.963450909E0,-1.207456589E-1
8.706169171E0,3.111879230E-1,-4.967553139E0,-1.227703094E-1
8.710993077E0,2.936283350E-1,-4.942968369E0,-1.296939850E-1
8.715817036E0,2.937496901E-1,-4.937344551E0,-1.224794388E-1
8.720640942E0,3.066354394E-1,-4.941047668E0,-1.273498535E-1
8.725464900E0,3.110070229E-1,-4.932635307E0,-1.275749207E-1
8.730288807E0,3.047185540E-1,-4.928775787E0,-1.516475677E-1
8.735112713E0,3.024830818E-1,-4.936536789E0,-1.637344360E-1
8.739936671E0,3.304108977E-1,-4.953443050E0,-1.710481644E-1
8.744760577E0,3.362986445E-1,-4.939167023E0,-1.641159058E-1
8.749584484E0,3.441762924E-1,-4.915269375E0,-1.643934250E-1
8.754408442E0,3.398808241E-1,-4.931679249E0,-1.813049316E-1
8.759232348E0,3.474317193E-1,-4.919301510E0,-1.743564606E-1
8.764056307E0,3.570383787E-1,-4.897351265E0,-1.508836746E-1
8.768880213E0,3.689452410E-1,-4.906327724E0,-1.465940475E-1
8.773704119E0,3.974889517E-1,-4.893723488E0,-1.470756531E-1
8.778528077E0,3.646074533E-1,-4.904965401E0,-1.522550583E-1
8.783351984E0,3.826625347E-1,-4.889981747E0,-1.596870422E-1
8.788175890E0,3.897309303E-1,-4.898692608E0,-1.764488220E-1
8.792999848E0,4.194234610E-1,-4.838525772E0,-1.668434143E-1
8.797823754E0,4.362228513E-1,-4.807542324E0,-1.690397263E-1
8.802647661E0,4.381670952E-1,-4.793536663E0,-1.473083496E-1
8.807471619E0,4.799152613E-1,-4.803566456E0,-1.635484695E-1
8.812295525E0,4.899176359E-1,-4.801699638E0,-1.486272812E-1
8.817119432E0,4.874758720E-1,-4.897170067E0,-1.692390442E-1
8.821943390E0,4.512849450E-1,-4.946763992E0,-1.847505569E-1
8.826767296E0,4.313324690E-1,-4.955528736E0,-1.904649734E-1
8.831591254E0,3.894374371E-1,-5.006881237E0,-1.935882568E-1
8.836415161E0,3.847450018E-1,-5.038634300E0,-1.846780777E-1
8.841239067E0,3.787351251E-1,-5.051056385E0,-1.899633408E-1
8.846063025E0,3.828260899E-1,-4.966073513E0,-1.548004150E-1
8.850886932E0,4.151918888E-1,-4.957702160E0,-1.199378967E-1
8.855710838E0,4.464881420E-1,-5.020476818E0,-1.257820129E-1
8.860534796E0,5.070130825E-1,-5.061213970E0,-1.151123047E-1
8.865358702E0,5.085172653E-1,-5.056494236E0,-9.522056580E-2
8.870182661E0,3.757897019E-1,-4.987851143E0,-5.667495728E-2
8.875006567E0,2.998920679E-1,-4.938975334E0,-4.708099365E-2
8.879830473E0,3.109679222E-1,-4.935865402E0,-5.198955536E-2
8.884654432E0,2.894570231E-1,-4.906988621E0,-4.283142090E-2
8.889478338E0,3.044785261E-1,-4.897759914E0,-1.735210419E-2
8.894302244E0,3.414971232E-1,-4.848798752E0,5.327224731E-3
8.899126202E0,3.008570671E-1,-4.812612534E0,3.898620605E-3
8.903950109E0,3.115941286E-1,-4.798598289E0,-4.863739014E-5
8.908774015E0,3.143097162E-1,-4.804216862E0,-1.831626892E-2
8.913597973E0,3.400671482E-1,-4.793788910E0,-1.042747498E-2
8.918421879E0,3.652975559E-1,-4.791069031E0,-5.026817322E-3
8.923245838E0,3.499600887E-1,-4.829187393E0,-3.764915466E-2
8.928069744E0,3.329396248E-1,-4.796191692E0,-6.044673920E-2
8.932893650E0,3.548709750E-1,-4.742730618E0,-4.500293732E-2
8.937717609E0,3.729363680E-1,-4.735400200E0,-5.092811584E-2
8.942541515E0,3.873459101E-1,-4.735656738E0,-6.377506256E-2
8.947365421E0,3.792442083E-1,-4.738893032E0,-7.873249054E-2
8.952189379E0,3.891350627E-1,-4.775755405E0,-8.391284943E-2
8.957013286E0,3.955945969E-1,-4.793663502E0,-1.031093597E-1
8.961837192E0,3.889521360E-1,-4.823596478E0,-1.148691177E-1
8.966661150E0,3.906151056E-1,-4.879540920E0,-1.287460327E-1
8.971485057E0,3.741941452E-1,-4.906688213E0,-1.447429657E-1
8.976309015E0,3.799239397E-1,-4.978704929E0,-1.533765793E-1
8.981132921E0,3.812264204E-1,-5.033396244E0,-1.879606247E-1
8.985956827E0,3.472304940E-1,-5.089784622E0,-2.008237839E-1
8.990780786E0,3.537577391E-1,-5.088491917E0,-2.135553360E-1
8.995604692E0,3.499829769E-1,-4.996788979E0,-1.692905426E-1
9.000428598E0,3.169283867E-1,-4.941275120E0,-1.278381348E-1
9.005252557E0,3.257774711E-1,-4.917020321E0,-1.295461655E-1
9.010076463E0,3.331154585E-1,-4.897513866E0,-1.242685318E-1
9.014900421E0,3.388378620E-1,-4.854372501E0,-1.120843887E-1
9.019724327E0,3.287694454E-1,-4.823297501E0,-9.778785706E-2
9.024548234E0,3.315113187E-1,-4.828063965E0,-1.169967651E-1
9.029372192E0,3.374356031E-1,-4.801852703E0,-9.587287903E-2
9.034196046E0,3.277885318E-1,-4.780540466E0,-1.011648178E-1
9.039020004E0,3.097875714E-1,-4.799514294E0,-1.017999649E-1
9.043843963E0,3.005369902E-1,-4.782744408E0,-8.590793610E-2
9.048667869E0,2.835733294E-1,-4.777870178E0,-1.105451584E-1
9.053491775E0,3.113713264E-1,-4.775344849E0,-1.112804413E-1
9.058315734E0,3.363656998E-1,-4.763332367E0,-1.191291809E-1
9.063139640E0,3.466252089E-1,-4.786916733E0,-1.292953491E-1
9.067963598E0,3.544105291E-1,-4.807849407E0,-1.488466263E-1
9.072787504E0,3.504945040E-1,-4.743041992E0,-1.230974197E-1
9.077611411E0,3.588005304E-1,-4.766592026E0,-1.236047745E-1
9.082435369E0,3.770359755E-1,-4.740092754E0,-1.074151993E-1
9.087259275E0,3.790964484E-1,-4.815690994E0,-1.410961151E-1
9.092083182E0,4.124964476E-1,-4.859571934E0,-1.578025818E-1
9.096907088E0,3.821692467E-1,-4.819947243E0,-1.363153458E-1
9.101731046E0,3.860129118E-1,-4.787612438E0,-1.386337280E-1
9.106555004E0,3.598730564E-1,-4.760068893E0,-1.526727676E-1
9.111378911E0,3.797018528E-1,-4.860600948E0,-1.617507935E-1
9.116202817E0,4.021625519E-1,-4.886463642E0,-1.659412384E-1
9.121026775E0,4.035258293E-1,-4.840600967E0,-1.510467529E-1
9.125850682E0,3.816462755E-1,-4.778473377E0,-1.338376999E-1
9.130674588E0,3.864132166E-1,-4.849467278E0,-1.665430069E-1
9.135498546E0,4.029437304E-1,-4.836532593E0,-1.372756958E-1
9.140322452E0,4.004967809E-1,-4.825905800E0,-1.177186966E-1
9.145146359E0,4.028209448E-1,-4.817499638E0,-1.125478745E-1
9.149970317E0,3.697166443E-1,-4.780630112E0,-1.073942184E-1
9.154794223E0,3.725103140E-1,-4.850585938E0,-1.236257553E-1
9.159618182E0,3.821769953E-1,-4.893574715E0,-1.255016327E-1
9.164442088E0,3.747819662E-1,-4.895710945E0,-9.418201447E-2
9.169265994E0,3.575936556E-1,-4.859665871E0,-9.401035309E-2
9.174089952E0,3.494679928E-1,-4.866541386E0,-8.678722382E-2
9.178913859E0,3.478442430E-1,-4.835264206E0,-7.020950317E-2
9.183737817E0,3.596095443E-1,-4.844467163E0,-8.471775055E-2
9.188561723E0,3.585571051E-1,-4.825038433E0,-6.598281860E-2
9.193385629E0,3.541945219E-1,-4.798563004E0,-6.886768341E-2
9.198209588E0,3.513465524E-1,-4.786602497E0,-5.284786224E-2
9.203033494E0,3.572567105E-1,-4.762829304E0,-3.704738617E-2
9.207857400E0,3.460925817E-1,-4.732187271E0,-3.803348541E-2
9.212681359E0,3.345605135E-1,-4.782562256E0,-6.516170502E-2
9.217505265E0,3.631930351E-1,-4.690253258E0,-4.700946808E-2
9.222329171E0,3.369649649E-1,-4.705435276E0,-5.747985840E-2
9.227153077E0,3.323314786E-1,-4.703952789E0,-5.836391449E-2
9.231977036E0,3.304733634E-1,-4.688325405E0,-7.343292236E-2
9.236800994E0,3.717576861E-1,-4.701316833E0,-7.171440125E-2
9.241624900E0,3.824167252E-1,-4.730773926E0,-9.366989136E-2
9.246448807E0,3.865599036E-1,-4.743347645E0,-1.034984589E-1
9.251272765E0,3.773065209E-1,-4.746255875E0,-1.226367950E-1
9.256096671E0,3.641781807E-1,-4.753739357E0,-1.320333481E-1
9.260920577E0,3.661110997E-1,-4.796576977E0,-1.388978958E-1
9.265744536E0,3.641372323E-1,-4.777227402E0,-1.432399750E-1
9.270568442E0,3.583170772E-1,-4.741241932E0,-1.427040100E-1
9.275392400E0,3.792374134E-1,-4.804952621E0,-1.563415527E-1
9.280216307E0,3.626098037E-1,-4.815731525E0,-1.437005997E-1
9.285040213E0,3.821150064E-1,-4.793032646E0,-1.501064301E-1
9.289864171E0,4.015105963E-1,-4.770237923E0,-1.374692917E-1
9.294688077E0,3.543913364E-1,-4.768769264E0,-1.225557327E-1
9.299511984E0,3.526403308E-1,-4.805067539E0,-1.504907608E-1
9.304335942E0,3.481568694E-1,-4.840636730E0,-1.284017563E-1
9.309159848E0,3.408516645E-1,-4.828109264E0,-1.445169449E-1
9.313983754E0,2.998768091E-1,-4.810647488E0,-1.320829391E-1
9.318807713E0,3.274656534E-1,-4.790719509E0,-1.388044357E-1
9.323631619E0,3.447480798E-1,-4.749308586E0,-1.194362640E-1
9.328455577E0,3.375385404E-1,-4.748397827E0,-1.216583252E-1
9.333279484E0,3.487299681E-1,-4.723581791E0,-1.168193817E-1
9.338103390E0,3.475244641E-1,-4.717776299E0,-1.120738983E-1
9.342927348E0,3.457193375E-1,-4.726205826E0,-1.264266968E-1
9.347751254E0,3.531944156E-1,-4.724912167E0,-1.027259827E-1
9.352575161E0,3.723968267E-1,-4.718775749E0,-9.822273254E-2
9.357399119E0,3.510537744E-1,-4.710220814E0,-9.140014648E-2
9.362223025E0,3.751046062E-1,-4.701721191E0,-9.175205231E-2
9.367046984E0,3.660925031E-1,-4.726488590E0,-1.039400101E-1
9.371870890E0,3.694176674E-1,-4.729661465E0,-1.136255264E-1
9.376694796E0,3.969890475E-1,-4.744660378E0,-1.089496613E-1
9.381518754E0,3.869146109E-1,-4.731058598E0,-9.003639221E-2
9.386342661E0,3.894206285E-1,-4.727151871E0,-1.115722656E-1
9.391166567E0,3.855038881E-1,-4.718508720E0,-1.067667007E-1
9.395991254E0,3.798716664E-1,-4.747969151E0,-9.246253967E-2
9.400814432E0,4.152845144E-1,-4.710818291E0,-9.246540070E-2
9.405638390E0,3.680838943E-1,-4.721487045E0,-1.066465378E-1
9.410462244E0,3.813030720E-1,-4.717926979E0,-1.064167023E-1
9.415286202E0,3.667249680E-1,-4.728610992E0,-1.084928513E-1
9.420110161E0,3.600894213E-1,-4.741616726E0,-1.152391434E-1
9.424934067E0,3.613668680E-1,-4.728438377E0,-1.052570343E-1
9.429758025E0,3.396612406E-1,-4.703668118E0,-1.071605682E-1
9.434581932E0,3.801674843E-1,-4.745564938E0,-1.256322861E-1
9.439405838E0,3.848625422E-1,-4.763341427E0,-9.886074066E-2
9.444229744E0,3.682334423E-1,-4.754923344E0,-1.102819443E-1
9.449053702E0,3.706176877E-1,-4.751290321E0,-1.050176620E-1
9.453877609E0,3.609203100E-1,-4.752420902E0,-1.045722961E-1
9.458701567E0,3.272639513E-1,-4.746435165E0,-9.705638885E-2
9.463525473E0,3.363109231E-1,-4.709774971E0,-9.201908112E-2
9.468349379E0,3.426343203E-1,-4.699575424E0,-7.757091522E-2
9.473173338E0,3.296654224E-1,-4.682490826E0,-9.413433075E-2
9.477997244E0,3.354676366E-1,-4.755667686E0,-1.082258224E-1
9.482821202E0,3.667075634E-1,-4.759514809E0,-9.143066406E-2
9.487645109E0,3.542981148E-1,-4.741995811E0,-9.858894348E-2
9.492469015E0,3.651258945E-1,-4.693869114E0,-7.017326355E-2
9.497292973E0,3.563481569E-1,-4.677233219E0,-7.054328918E-2
9.502116879E0,3.543580174E-1,-4.668045998E0,-7.808589935E-2
9.506940786E0,3.519085646E-1,-4.656760216E0,-7.614231110E-2
9.511764744E0,3.610953093E-1,-4.648145199E0,-8.137321472E-2
9.516588650E0,3.439799547E-1,-4.668333530E0,-7.472515106E-2
9.521412609E0,3.318316340E-1,-4.645886421E0,-7.525444031E-2
9.526236515E0,3.484038711E-1,-4.626274109E0,-8.526992798E-2
9.531060421E0,3.485602736E-1,-4.626096725E0,-9.280586243E-2
9.535884379E0,3.537219167E-1,-4.640336037E0,-1.168670654E-1
9.540708286E0,3.853482008E-1,-4.671260357E0,-1.050987244E-1
9.545532192E0,4.073688388E-1,-4.678341389E0,-1.147737503E-1
9.550356150E0,3.749732971E-1,-4.664224625E0,-1.077280045E-1
9.555180057E0,3.695158958E-1,-4.685992718E0,-1.101779938E-1
9.560003963E0,3.812205791E-1,-4.707710743E0,-1.101827621E-1
9.564827921E0,3.885316253E-1,-4.696204662E0,-1.053962708E-1
9.569651827E0,3.819867373E-1,-4.668328762E0,-1.100950241E-1
9.574475786E0,3.690029979E-1,-4.678840637E0,-1.194334030E-1
9.579299692E0,3.708431721E-1,-4.687057018E0,-1.310138702E-1
9.584123598E0,3.708279133E-1,-4.673882961E0,-1.163320541E-1
9.588947557E0,3.665373921E-1,-4.694132328E0,-1.278162003E-1
9.593771463E0,3.486009836E-1,-4.685899258E0,-1.272764206E-1
9.598595369E0,3.525757194E-1,-4.673105717E0,-1.243162155E-1
9.603419327E0,3.826678991E-1,-4.698420048E0,-1.379728317E-1
9.608243234E0,3.957492113E-1,-4.699834347E0,-1.183042526E-1
9.613067192E0,3.800435662E-1,-4.722547531E0,-1.225376129E-1
9.617891098E0,3.735893965E-1,-4.707132816E0,-1.220235825E-1
9.622715004E0,3.501121402E-1,-4.717921257E0,-1.144371033E-1
9.627538911E0,3.452375531E-1,-4.690710545E0,-1.022272110E-1
9.632362869E0,3.279243708E-1,-4.706417084E0,-9.967136383E-2
9.637186775E0,3.409622908E-1,-4.684062958E0,-9.008598328E-2
9.642010734E0,3.389750719E-1,-4.673794746E0,-1.067514420E-1
9.646834640E0,3.387217522E-1,-4.651872158E0,-1.091156006E-1
9.651658598E0,3.424056768E-1,-4.641980648E0,-8.781528473E-2
9.656482504E0,3.430136442E-1,-4.644090176E0,-6.676387787E-2
9.661306411E0,3.382841945E-1,-4.624947548E0,-8.629035950E-2
